"idx","session","sess","cond","block","trial","trial_within_block","rt","action","outcome","score","reversal","choice","opt_act","opt"
6,"fmri","fMRI","Mixed",1,1,1,1.833,1,1,150,0,0,0,1
6,"fmri","fMRI","Mixed",1,2,2,4.3,0,0,150,0,1,0,0
6,"fmri","fMRI","Mixed",1,3,3,3.85,1,1,150,0,0,0,1
6,"fmri","fMRI","Mixed",1,4,4,1.451,0,0,150,0,1,0,0
6,"fmri","fMRI","Mixed",1,5,5,4.65,0,0,150,0,1,0,0
6,"fmri","fMRI","Mixed",1,6,6,0.917,1,1,150,0,0,0,1
6,"fmri","fMRI","Mixed",1,7,7,9.933,1,1,150,0,0,0,1
6,"fmri","fMRI","Mixed",1,8,8,0.816,0,0,150,0,1,0,0
6,"fmri","fMRI","Mixed",1,9,9,2.467,1,1,150,0,0,0,1
6,"fmri","fMRI","Mixed",1,10,10,0.233,0,1,150,0,1,0,0
6,"fmri","fMRI","Mixed",1,11,11,1.9,1,0,150,0,0,0,1
6,"fmri","fMRI","Mixed",1,12,12,0.667,0,1,150,1,1,0,0
6,"fmri","fMRI","Mixed",1,13,13,2.3,1,0,150,0,0,1,0
6,"fmri","fMRI","Mixed",1,14,14,1.917,0,1,150,0,1,1,1
6,"fmri","fMRI","Mixed",1,15,15,3.05,0,1,150,0,1,1,1
6,"fmri","fMRI","Mixed",1,16,16,0.166,1,1,150,0,0,1,0
6,"fmri","fMRI","Mixed",1,17,17,1.717,1,0,150,0,0,1,0
6,"fmri","fMRI","Mixed",1,18,18,0.733,0,0,150,0,1,1,1
6,"fmri","fMRI","Mixed",1,19,19,3.05,0,1,150,0,1,1,1
6,"fmri","fMRI","Mixed",1,20,20,0.95,1,0,150,0,0,1,0
6,"fmri","fMRI","Mixed",1,21,21,1.667,1,0,150,0,0,1,0
6,"fmri","fMRI","Mixed",1,22,22,0.483,0,1,150,0,1,1,1
6,"fmri","fMRI","Mixed",1,23,23,3.616,0,1,150,0,1,1,1
6,"fmri","fMRI","Mixed",1,24,24,0.45,1,0,150,1,0,1,0
6,"fmri","fMRI","Mixed",1,25,25,1.95,1,1,150,0,0,0,1
6,"fmri","fMRI","Mixed",1,26,26,0.2,0,1,150,0,1,0,0
6,"fmri","fMRI","Mixed",1,27,27,1.734,1,1,150,0,0,0,1
6,"fmri","fMRI","Mixed",1,28,28,0.9,0,0,150,0,1,0,0
6,"fmri","fMRI","Mixed",1,29,29,1.434,1,1,150,0,0,0,1
6,"fmri","fMRI","Mixed",1,30,30,0.517,0,0,150,0,1,0,0
6,"fmri","fMRI","Mixed",1,31,31,1.283,1,1,150,0,0,0,1
6,"fmri","fMRI","Mixed",1,32,32,0.8,0,0,150,0,1,0,0
6,"fmri","fMRI","Mixed",1,33,33,0.867,1,1,150,0,0,0,1
6,"fmri","fMRI","Mixed",1,34,34,0.416,0,0,150,0,1,0,0
6,"fmri","fMRI","Mixed",1,35,35,1.133,1,1,150,0,0,0,1
6,"fmri","fMRI","Positive",3,36,1,1.766,1,1,170,0,0,0,1
6,"fmri","fMRI","Positive",3,37,2,1.45,1,1,170,0,0,0,1
6,"fmri","fMRI","Positive",3,38,3,1.267,1,0,170,0,0,0,1
6,"fmri","fMRI","Positive",3,39,4,0.85,1,1,170,0,0,0,1
6,"fmri","fMRI","Positive",3,40,5,1.199,1,1,170,0,0,0,1
6,"fmri","fMRI","Positive",3,41,6,0.766,1,1,170,0,0,0,1
6,"fmri","fMRI","Positive",3,42,7,0.6,1,1,170,0,0,0,1
6,"fmri","fMRI","Positive",3,43,8,0.516,1,1,170,0,0,0,1
6,"fmri","fMRI","Positive",3,44,9,0.733,1,1,170,0,0,0,1
6,"fmri","fMRI","Positive",3,45,10,0.717,1,1,170,0,0,0,1
6,"fmri","fMRI","Positive",3,46,11,0.65,1,1,170,0,0,0,1
6,"fmri","fMRI","Positive",3,47,12,0.667,1,1,170,1,0,0,1
6,"fmri","fMRI","Positive",3,48,13,0.066,1,0,170,0,0,1,0
6,"fmri","fMRI","Positive",3,49,14,0.667,1,0,170,0,0,1,0
6,"fmri","fMRI","Positive",3,50,15,0.317,1,0,170,0,0,1,0
6,"fmri","fMRI","Positive",3,51,16,0.317,1,0,170,0,0,1,0
6,"fmri","fMRI","Positive",3,52,17,0.4,1,0,170,0,0,1,0
6,"fmri","fMRI","Positive",3,53,18,0.534,1,0,170,0,0,1,0
6,"fmri","fMRI","Positive",3,54,19,1.483,0,1,170,0,1,1,1
6,"fmri","fMRI","Positive",3,55,20,0.733,0,1,170,0,1,1,1
6,"fmri","fMRI","Positive",3,56,21,0.183,0,1,170,0,1,1,1
6,"fmri","fMRI","Positive",3,57,22,0.334,0,1,170,0,1,1,1
6,"fmri","fMRI","Positive",3,58,23,0.717,0,0,170,0,1,1,1
6,"fmri","fMRI","Positive",3,59,24,0.533,0,1,170,1,1,1,1
6,"fmri","fMRI","Positive",3,60,25,0.5,0,1,170,0,1,0,0
6,"fmri","fMRI","Positive",3,61,26,0.45,0,0,170,0,1,0,0
6,"fmri","fMRI","Positive",3,62,27,0.683,0,0,170,0,1,0,0
6,"fmri","fMRI","Positive",3,63,28,0.133,0,0,170,0,1,0,0
6,"fmri","fMRI","Positive",3,64,29,0.234,0,1,170,0,1,0,0
6,"fmri","fMRI","Positive",3,65,30,0.8,0,0,170,0,1,0,0
6,"fmri","fMRI","Positive",3,66,31,0.283,0,0,170,0,1,0,0
6,"fmri","fMRI","Positive",3,67,32,0.317,0,0,170,0,1,0,0
6,"fmri","fMRI","Positive",3,68,33,0.284,0,0,170,0,1,0,0
6,"fmri","fMRI","Positive",3,69,34,0.8,0,0,170,0,1,0,0
6,"fmri","fMRI","Positive",3,70,35,0.016,1,1,170,0,0,0,1
6,"fmri","fMRI","Negative",2,71,1,4.3,1,1,-20,0,0,1,0
6,"fmri","fMRI","Negative",2,72,2,0.05,0,0,-20,0,1,1,1
6,"fmri","fMRI","Negative",2,73,3,1.466,1,0,-20,0,0,1,0
6,"fmri","fMRI","Negative",2,74,4,0.783,0,1,-20,0,1,1,1
6,"fmri","fMRI","Negative",2,75,5,1.349,1,1,-20,0,0,1,0
6,"fmri","fMRI","Negative",2,76,6,1.283,0,0,-20,0,1,1,1
6,"fmri","fMRI","Negative",2,77,7,4.184,1,0,-20,0,0,1,0
6,"fmri","fMRI","Negative",2,78,8,0.583,0,1,-20,0,1,1,1
6,"fmri","fMRI","Negative",2,79,9,1.45,1,1,-20,0,0,1,0
6,"fmri","fMRI","Negative",2,80,10,0.4,0,1,-20,0,1,1,1
6,"fmri","fMRI","Negative",2,81,11,0.083,1,0,-20,0,0,1,0
6,"fmri","fMRI","Negative",2,82,12,0.183,0,1,-20,1,1,1,1
6,"fmri","fMRI","Negative",2,83,13,1.116,0,0,-20,0,1,0,0
6,"fmri","fMRI","Negative",2,84,14,1.433,1,0,-20,0,0,0,1
6,"fmri","fMRI","Negative",2,85,15,2.8,0,0,-20,0,1,0,0
6,"fmri","fMRI","Negative",2,86,16,0.733,1,0,-20,0,0,0,1
6,"fmri","fMRI","Negative",2,87,17,2.05,0,0,-20,0,1,0,0
6,"fmri","fMRI","Negative",2,88,18,1.433,1,1,-20,0,0,0,1
6,"fmri","fMRI","Negative",2,89,19,1.217,1,1,-20,0,0,0,1
6,"fmri","fMRI","Negative",2,90,20,0.183,0,0,-20,0,1,0,0
6,"fmri","fMRI","Negative",2,91,21,0.501,1,0,-20,0,0,0,1
6,"fmri","fMRI","Negative",2,92,22,0.367,0,0,-20,0,1,0,0
6,"fmri","fMRI","Negative",2,93,23,0.25,1,1,-20,0,0,0,1
6,"fmri","fMRI","Negative",2,94,24,1.45,0,0,-20,1,1,0,0
6,"fmri","fMRI","Negative",2,95,25,0.866,1,0,-20,0,0,1,0
6,"fmri","fMRI","Negative",2,96,26,0.85,0,1,-20,0,1,1,1
6,"fmri","fMRI","Negative",2,97,27,3.333,1,0,-20,0,0,1,0
6,"fmri","fMRI","Negative",2,98,28,1.75,1,0,-20,0,0,1,0
6,"fmri","fMRI","Negative",2,99,29,0.983,1,1,-20,0,0,1,0
6,"fmri","fMRI","Negative",2,100,30,0.65,0,1,-20,0,1,1,1
6,"fmri","fMRI","Negative",2,101,31,0.067,0,1,-20,0,1,1,1
6,"fmri","fMRI","Negative",2,102,32,0.234,0,1,-20,0,1,1,1
6,"fmri","fMRI","Negative",2,103,33,0.45,0,1,-20,0,1,1,1
6,"fmri","fMRI","Negative",2,104,34,0.383,0,1,-20,0,1,1,1
6,"fmri","fMRI","Negative",2,105,35,0.301,1,1,-20,0,0,1,0
6,"pre_stim","Pre-Stim","Mixed",3,1,1,2.6,1,0,270,0,0,0,1
6,"pre_stim","Pre-Stim","Mixed",3,2,2,0.616,0,0,270,0,1,0,0
6,"pre_stim","Pre-Stim","Mixed",3,3,3,0.866,1,1,270,0,0,0,1
6,"pre_stim","Pre-Stim","Mixed",3,4,4,0.65,1,1,270,0,0,0,1
6,"pre_stim","Pre-Stim","Mixed",3,5,5,0.35,1,1,270,0,0,0,1
6,"pre_stim","Pre-Stim","Mixed",3,6,6,0.334,1,1,270,0,0,0,1
6,"pre_stim","Pre-Stim","Mixed",3,7,7,1.1,1,1,270,0,0,0,1
6,"pre_stim","Pre-Stim","Mixed",3,8,8,0.667,1,1,270,0,0,0,1
6,"pre_stim","Pre-Stim","Mixed",3,9,9,0.417,1,1,270,0,0,0,1
6,"pre_stim","Pre-Stim","Mixed",3,10,10,0.467,1,1,270,0,0,0,1
6,"pre_stim","Pre-Stim","Mixed",3,11,11,8.05,1,1,270,0,0,0,1
6,"pre_stim","Pre-Stim","Mixed",3,12,12,1.15,1,1,270,1,0,0,1
6,"pre_stim","Pre-Stim","Mixed",3,13,13,0.984,1,0,270,0,0,1,0
6,"pre_stim","Pre-Stim","Mixed",3,14,14,0.484,0,1,270,0,1,1,1
6,"pre_stim","Pre-Stim","Mixed",3,15,15,0.383,0,0,270,0,1,1,1
6,"pre_stim","Pre-Stim","Mixed",3,16,16,1.583,0,1,270,0,1,1,1
6,"pre_stim","Pre-Stim","Mixed",3,17,17,0.4,0,0,270,0,1,1,1
6,"pre_stim","Pre-Stim","Mixed",3,18,18,1.217,1,0,270,0,0,1,0
6,"pre_stim","Pre-Stim","Mixed",3,19,19,1.017,1,1,270,0,0,1,0
6,"pre_stim","Pre-Stim","Mixed",3,20,20,0.233,1,0,270,0,0,1,0
6,"pre_stim","Pre-Stim","Mixed",3,21,21,1.1,0,1,270,0,1,1,1
6,"pre_stim","Pre-Stim","Mixed",3,22,22,1.334,0,1,270,0,1,1,1
6,"pre_stim","Pre-Stim","Mixed",3,23,23,0.833,0,1,270,0,1,1,1
6,"pre_stim","Pre-Stim","Mixed",3,24,24,0.7,0,1,270,1,1,1,1
6,"pre_stim","Pre-Stim","Mixed",3,25,25,1.584,0,0,270,0,1,0,0
6,"pre_stim","Pre-Stim","Mixed",3,26,26,1.317,0,0,270,0,1,0,0
6,"pre_stim","Pre-Stim","Mixed",3,27,27,0.583,1,1,270,0,0,0,1
6,"pre_stim","Pre-Stim","Mixed",3,28,28,0.434,1,0,270,0,0,0,1
6,"pre_stim","Pre-Stim","Mixed",3,29,29,0.35,1,1,270,0,0,0,1
6,"pre_stim","Pre-Stim","Mixed",3,30,30,0.801,1,1,270,0,0,0,1
6,"pre_stim","Pre-Stim","Mixed",3,31,31,0.15,1,1,270,0,0,0,1
6,"pre_stim","Pre-Stim","Mixed",3,32,32,3.4,1,1,270,0,0,0,1
6,"pre_stim","Pre-Stim","Mixed",3,33,33,0.8,1,1,270,0,0,0,1
6,"pre_stim","Pre-Stim","Mixed",3,34,34,0.351,1,1,270,0,0,0,1
6,"pre_stim","Pre-Stim","Mixed",3,35,35,0.55,1,1,270,0,0,0,1
6,"pre_stim","Pre-Stim","Positive",1,36,1,2.567,1,0,310,0,0,0,1
6,"pre_stim","Pre-Stim","Positive",1,37,2,0.55,0,0,310,0,1,0,0
6,"pre_stim","Pre-Stim","Positive",1,38,3,1.116,1,1,310,0,0,0,1
6,"pre_stim","Pre-Stim","Positive",1,39,4,0.267,1,1,310,0,0,0,1
6,"pre_stim","Pre-Stim","Positive",1,40,5,0.417,1,1,310,0,0,0,1
6,"pre_stim","Pre-Stim","Positive",1,41,6,0.334,1,1,310,0,0,0,1
6,"pre_stim","Pre-Stim","Positive",1,42,7,0.55,1,1,310,0,0,0,1
6,"pre_stim","Pre-Stim","Positive",1,43,8,0.883,1,1,310,0,0,0,1
6,"pre_stim","Pre-Stim","Positive",1,44,9,0.801,1,0,310,0,0,0,1
6,"pre_stim","Pre-Stim","Positive",1,45,10,1.483,0,0,310,0,1,0,0
6,"pre_stim","Pre-Stim","Positive",1,46,11,2.434,0,1,310,0,1,0,0
6,"pre_stim","Pre-Stim","Positive",1,47,12,1.7,0,0,310,1,1,0,0
6,"pre_stim","Pre-Stim","Positive",1,48,13,1.084,1,0,310,0,0,1,0
6,"pre_stim","Pre-Stim","Positive",1,49,14,0.433,1,0,310,0,0,1,0
6,"pre_stim","Pre-Stim","Positive",1,50,15,1.316,0,1,310,0,1,1,1
6,"pre_stim","Pre-Stim","Positive",1,51,16,1.15,0,0,310,0,1,1,1
6,"pre_stim","Pre-Stim","Positive",1,52,17,1.266,1,0,310,0,0,1,0
6,"pre_stim","Pre-Stim","Positive",1,53,18,1.966,0,1,310,0,1,1,1
6,"pre_stim","Pre-Stim","Positive",1,54,19,1.133,0,1,310,0,1,1,1
6,"pre_stim","Pre-Stim","Positive",1,55,20,0.9,0,0,310,0,1,1,1
6,"pre_stim","Pre-Stim","Positive",1,56,21,1.1,0,1,310,0,1,1,1
6,"pre_stim","Pre-Stim","Positive",1,57,22,1.433,0,1,310,0,1,1,1
6,"pre_stim","Pre-Stim","Positive",1,58,23,0.334,0,1,310,0,1,1,1
6,"pre_stim","Pre-Stim","Positive",1,59,24,0.784,0,1,310,1,1,1,1
6,"pre_stim","Pre-Stim","Positive",1,60,25,1.367,0,0,310,0,1,0,0
6,"pre_stim","Pre-Stim","Positive",1,61,26,1.733,1,0,310,0,0,0,1
6,"pre_stim","Pre-Stim","Positive",1,62,27,3.25,0,0,310,0,1,0,0
6,"pre_stim","Pre-Stim","Positive",1,63,28,0.983,1,1,310,0,0,0,1
6,"pre_stim","Pre-Stim","Positive",1,64,29,0.534,1,1,310,0,0,0,1
6,"pre_stim","Pre-Stim","Positive",1,65,30,1.117,1,1,310,0,0,0,1
6,"pre_stim","Pre-Stim","Positive",1,66,31,1.034,1,1,310,0,0,0,1
6,"pre_stim","Pre-Stim","Positive",1,67,32,0.634,1,1,310,0,0,0,1
6,"pre_stim","Pre-Stim","Positive",1,68,33,0.667,1,1,310,0,0,0,1
6,"pre_stim","Pre-Stim","Positive",1,69,34,1.083,1,0,310,0,0,0,1
6,"pre_stim","Pre-Stim","Positive",1,70,35,0.9,1,1,310,0,0,0,1
6,"pre_stim","Pre-Stim","Negative",2,71,1,2.483,1,0,120,0,0,1,0
6,"pre_stim","Pre-Stim","Negative",2,72,2,0.884,0,1,120,0,1,1,1
6,"pre_stim","Pre-Stim","Negative",2,73,3,1.033,0,1,120,0,1,1,1
6,"pre_stim","Pre-Stim","Negative",2,74,4,1.45,1,0,120,0,0,1,0
6,"pre_stim","Pre-Stim","Negative",2,75,5,1.733,1,0,120,0,0,1,0
6,"pre_stim","Pre-Stim","Negative",2,76,6,0.883,0,1,120,0,1,1,1
6,"pre_stim","Pre-Stim","Negative",2,77,7,0.95,0,1,120,0,1,1,1
6,"pre_stim","Pre-Stim","Negative",2,78,8,0.151,0,1,120,0,1,1,1
6,"pre_stim","Pre-Stim","Negative",2,79,9,0.7,0,0,120,0,1,1,1
6,"pre_stim","Pre-Stim","Negative",2,80,10,0.416,0,1,120,0,1,1,1
6,"pre_stim","Pre-Stim","Negative",2,81,11,0.617,1,1,120,0,0,1,0
6,"pre_stim","Pre-Stim","Negative",2,82,12,1.4,1,1,120,1,0,1,0
6,"pre_stim","Pre-Stim","Negative",2,83,13,0.384,1,1,120,0,0,0,1
6,"pre_stim","Pre-Stim","Negative",2,84,14,0.166,1,1,120,0,0,0,1
6,"pre_stim","Pre-Stim","Negative",2,85,15,1.283,0,0,120,0,1,0,0
6,"pre_stim","Pre-Stim","Negative",2,86,16,1.05,0,1,120,0,1,0,0
6,"pre_stim","Pre-Stim","Negative",2,87,17,0.45,0,0,120,0,1,0,0
6,"pre_stim","Pre-Stim","Negative",2,88,18,0.65,0,0,120,0,1,0,0
6,"pre_stim","Pre-Stim","Negative",2,89,19,1.3,1,0,120,0,0,0,1
6,"pre_stim","Pre-Stim","Negative",2,90,20,1.417,1,1,120,0,0,0,1
6,"pre_stim","Pre-Stim","Negative",2,91,21,0.734,1,1,120,0,0,0,1
6,"pre_stim","Pre-Stim","Negative",2,92,22,0.267,1,0,120,0,0,0,1
6,"pre_stim","Pre-Stim","Negative",2,93,23,0.85,0,0,120,0,1,0,0
6,"pre_stim","Pre-Stim","Negative",2,94,24,0.817,0,0,120,1,1,0,0
6,"pre_stim","Pre-Stim","Negative",2,95,25,0.867,0,0,120,0,1,1,1
6,"pre_stim","Pre-Stim","Negative",2,96,26,0.416,0,1,120,0,1,1,1
6,"pre_stim","Pre-Stim","Negative",2,97,27,0.666,0,1,120,0,1,1,1
6,"pre_stim","Pre-Stim","Negative",2,98,28,1.451,0,0,120,0,1,1,1
6,"pre_stim","Pre-Stim","Negative",2,99,29,0.584,1,0,120,0,0,1,0
6,"pre_stim","Pre-Stim","Negative",2,100,30,0.1,1,0,120,0,0,1,0
6,"pre_stim","Pre-Stim","Negative",2,101,31,0.076,1,1,120,0,0,1,0
6,"pre_stim","Pre-Stim","Negative",2,102,32,0.184,1,0,120,0,0,1,0
6,"pre_stim","Pre-Stim","Negative",2,103,33,0.2,1,0,120,0,0,1,0
6,"pre_stim","Pre-Stim","Negative",2,104,34,0.616,1,0,120,0,0,1,0
6,"pre_stim","Pre-Stim","Negative",2,105,35,0.103,1,0,120,0,0,1,0
6,"post_stim","Post-Stim","Mixed",3,1,1,2.55,1,1,380,0,0,1,0
6,"post_stim","Post-Stim","Mixed",3,2,2,0.933,1,0,380,0,0,1,0
6,"post_stim","Post-Stim","Mixed",3,3,3,0.983,0,0,380,0,1,1,1
6,"post_stim","Post-Stim","Mixed",3,4,4,1.017,0,1,380,0,1,1,1
6,"post_stim","Post-Stim","Mixed",3,5,5,0.884,0,1,380,0,1,1,1
6,"post_stim","Post-Stim","Mixed",3,6,6,0.983,0,1,380,0,1,1,1
6,"post_stim","Post-Stim","Mixed",3,7,7,0.75,0,1,380,0,1,1,1
6,"post_stim","Post-Stim","Mixed",3,8,8,0.716,0,1,380,0,1,1,1
6,"post_stim","Post-Stim","Mixed",3,9,9,0.35,0,1,380,0,1,1,1
6,"post_stim","Post-Stim","Mixed",3,10,10,0.8,0,1,380,0,1,1,1
6,"post_stim","Post-Stim","Mixed",3,11,11,0.4,0,1,380,0,1,1,1
6,"post_stim","Post-Stim","Mixed",3,12,12,0.867,0,1,380,0,1,1,1
6,"post_stim","Post-Stim","Mixed",3,13,13,2.917,0,1,380,1,1,1,1
6,"post_stim","Post-Stim","Mixed",3,14,14,0.766,0,0,380,0,1,0,0
6,"post_stim","Post-Stim","Mixed",3,15,15,1.484,1,1,380,0,0,0,1
6,"post_stim","Post-Stim","Mixed",3,16,16,0.117,1,1,380,0,0,0,1
6,"post_stim","Post-Stim","Mixed",3,17,17,0.183,1,1,380,0,0,0,1
6,"post_stim","Post-Stim","Mixed",3,18,18,1.117,1,0,380,0,0,0,1
6,"post_stim","Post-Stim","Mixed",3,19,19,0.883,1,1,380,0,0,0,1
6,"post_stim","Post-Stim","Mixed",3,20,20,1.2,1,1,380,0,0,0,1
6,"post_stim","Post-Stim","Mixed",3,21,21,0.817,1,1,380,0,0,0,1
6,"post_stim","Post-Stim","Mixed",3,22,22,1.683,1,0,380,0,0,0,1
6,"post_stim","Post-Stim","Mixed",3,23,23,1.533,1,1,380,0,0,0,1
6,"post_stim","Post-Stim","Mixed",3,24,24,0.967,1,0,380,0,0,0,1
6,"post_stim","Post-Stim","Mixed",3,25,25,0.967,0,1,380,1,1,0,0
6,"post_stim","Post-Stim","Mixed",3,26,26,0.316,0,1,380,0,1,1,1
6,"post_stim","Post-Stim","Mixed",3,27,27,0.167,0,1,380,0,1,1,1
6,"post_stim","Post-Stim","Mixed",3,28,28,1.317,0,1,380,0,1,1,1
6,"post_stim","Post-Stim","Mixed",3,29,29,0.867,0,1,380,0,1,1,1
6,"post_stim","Post-Stim","Mixed",3,30,30,1.05,0,1,380,0,1,1,1
6,"post_stim","Post-Stim","Mixed",3,31,31,0.483,0,1,380,0,1,1,1
6,"post_stim","Post-Stim","Mixed",3,32,32,1.434,0,0,380,0,1,1,1
6,"post_stim","Post-Stim","Mixed",3,33,33,1.617,1,0,380,0,0,1,0
6,"post_stim","Post-Stim","Mixed",3,34,34,1.499,0,0,380,0,1,1,1
6,"post_stim","Post-Stim","Mixed",3,35,35,2.017,0,1,380,0,1,1,1
6,"post_stim","Post-Stim","Positive",2,36,1,1.8,1,1,210,0,0,0,1
6,"post_stim","Post-Stim","Positive",2,37,2,0.35,1,1,210,0,0,0,1
6,"post_stim","Post-Stim","Positive",2,38,3,0.816,1,1,210,0,0,0,1
6,"post_stim","Post-Stim","Positive",2,39,4,0.734,1,1,210,0,0,0,1
6,"post_stim","Post-Stim","Positive",2,40,5,0.716,1,1,210,0,0,0,1
6,"post_stim","Post-Stim","Positive",2,41,6,0.383,1,1,210,0,0,0,1
6,"post_stim","Post-Stim","Positive",2,42,7,0.283,1,1,210,0,0,0,1
6,"post_stim","Post-Stim","Positive",2,43,8,1,1,1,210,0,0,0,1
6,"post_stim","Post-Stim","Positive",2,44,9,0.667,1,1,210,0,0,0,1
6,"post_stim","Post-Stim","Positive",2,45,10,1.75,1,1,210,0,0,0,1
6,"post_stim","Post-Stim","Positive",2,46,11,0.433,1,1,210,0,0,0,1
6,"post_stim","Post-Stim","Positive",2,47,12,1.167,1,1,210,0,0,0,1
6,"post_stim","Post-Stim","Positive",2,48,13,0.933,1,1,210,1,0,0,1
6,"post_stim","Post-Stim","Positive",2,49,14,0.35,1,0,210,0,0,1,0
6,"post_stim","Post-Stim","Positive",2,50,15,1.65,1,1,210,0,0,1,0
6,"post_stim","Post-Stim","Positive",2,51,16,1.067,1,0,210,0,0,1,0
6,"post_stim","Post-Stim","Positive",2,52,17,0.75,0,1,210,0,1,1,1
6,"post_stim","Post-Stim","Positive",2,53,18,0.417,0,1,210,0,1,1,1
6,"post_stim","Post-Stim","Positive",2,54,19,0.934,0,1,210,0,1,1,1
6,"post_stim","Post-Stim","Positive",2,55,20,0.667,0,1,210,0,1,1,1
6,"post_stim","Post-Stim","Positive",2,56,21,0.767,0,0,210,0,1,1,1
6,"post_stim","Post-Stim","Positive",2,57,22,2,1,0,210,0,0,1,0
6,"post_stim","Post-Stim","Positive",2,58,23,1.666,1,0,210,0,0,1,0
6,"post_stim","Post-Stim","Positive",2,59,24,0.683,0,0,210,0,1,1,1
6,"post_stim","Post-Stim","Positive",2,60,25,0.25,0,0,210,1,1,1,1
6,"post_stim","Post-Stim","Positive",2,61,26,2.333,1,1,210,0,0,0,1
6,"post_stim","Post-Stim","Positive",2,62,27,0.8,1,1,210,0,0,0,1
6,"post_stim","Post-Stim","Positive",2,63,28,0.75,1,0,210,0,0,0,1
6,"post_stim","Post-Stim","Positive",2,64,29,0.283,1,1,210,0,0,0,1
6,"post_stim","Post-Stim","Positive",2,65,30,0.366,1,1,210,0,0,0,1
6,"post_stim","Post-Stim","Positive",2,66,31,0.166,1,1,210,0,0,0,1
6,"post_stim","Post-Stim","Positive",2,67,32,0.65,1,1,210,0,0,0,1
6,"post_stim","Post-Stim","Positive",2,68,33,0.267,1,0,210,0,0,0,1
6,"post_stim","Post-Stim","Positive",2,69,34,1.334,1,1,210,0,0,0,1
6,"post_stim","Post-Stim","Positive",2,70,35,1.15,1,1,210,0,0,0,1
6,"post_stim","Post-Stim","Negative",1,71,1,1.134,1,0,-50,0,0,1,0
6,"post_stim","Post-Stim","Negative",1,72,2,1.166,0,0,-50,0,1,1,1
6,"post_stim","Post-Stim","Negative",1,73,3,1.633,1,1,-50,0,0,1,0
6,"post_stim","Post-Stim","Negative",1,74,4,0.567,1,0,-50,0,0,1,0
6,"post_stim","Post-Stim","Negative",1,75,5,2.217,0,1,-50,0,1,1,1
6,"post_stim","Post-Stim","Negative",1,76,6,1.367,0,1,-50,0,1,1,1
6,"post_stim","Post-Stim","Negative",1,77,7,1.383,0,1,-50,0,1,1,1
6,"post_stim","Post-Stim","Negative",1,78,8,1.633,0,1,-50,0,1,1,1
6,"post_stim","Post-Stim","Negative",1,79,9,0.983,1,0,-50,0,0,1,0
6,"post_stim","Post-Stim","Negative",1,80,10,1.483,1,1,-50,0,0,1,0
6,"post_stim","Post-Stim","Negative",1,81,11,1.016,1,0,-50,0,0,1,0
6,"post_stim","Post-Stim","Negative",1,82,12,1.517,0,1,-50,0,1,1,1
6,"post_stim","Post-Stim","Negative",1,83,13,0.933,0,1,-50,1,1,1,1
6,"post_stim","Post-Stim","Negative",1,84,14,0.85,0,0,-50,0,1,0,0
6,"post_stim","Post-Stim","Negative",1,85,15,0.917,0,0,-50,0,1,0,0
6,"post_stim","Post-Stim","Negative",1,86,16,0.517,1,0,-50,0,0,0,1
6,"post_stim","Post-Stim","Negative",1,87,17,0.349,1,1,-50,0,0,0,1
6,"post_stim","Post-Stim","Negative",1,88,18,0.75,1,0,-50,0,0,0,1
6,"post_stim","Post-Stim","Negative",1,89,19,2.183,0,1,-50,0,1,0,0
6,"post_stim","Post-Stim","Negative",1,90,20,1.184,0,0,-50,0,1,0,0
6,"post_stim","Post-Stim","Negative",1,91,21,2.65,0,0,-50,0,1,0,0
6,"post_stim","Post-Stim","Negative",1,92,22,1.084,1,0,-50,0,0,0,1
6,"post_stim","Post-Stim","Negative",1,93,23,1.4,1,1,-50,0,0,0,1
6,"post_stim","Post-Stim","Negative",1,94,24,1.334,1,1,-50,0,0,0,1
6,"post_stim","Post-Stim","Negative",1,95,25,1.2,1,1,-50,1,0,0,1
6,"post_stim","Post-Stim","Negative",1,96,26,1.1,1,1,-50,0,0,1,0
6,"post_stim","Post-Stim","Negative",1,97,27,1,1,0,-50,0,0,1,0
6,"post_stim","Post-Stim","Negative",1,98,28,2.267,1,0,-50,0,0,1,0
6,"post_stim","Post-Stim","Negative",1,99,29,1.033,0,1,-50,0,1,1,1
6,"post_stim","Post-Stim","Negative",1,100,30,0.966,0,0,-50,0,1,1,1
6,"post_stim","Post-Stim","Negative",1,101,31,1.517,0,1,-50,0,1,1,1
6,"post_stim","Post-Stim","Negative",1,102,32,2.183,0,1,-50,0,1,1,1
6,"post_stim","Post-Stim","Negative",1,103,33,0.917,0,1,-50,0,1,1,1
6,"post_stim","Post-Stim","Negative",1,104,34,1.55,0,1,-50,0,1,1,1
6,"post_stim","Post-Stim","Negative",1,105,35,1.283,0,1,-50,0,1,1,1
6,"1w","Week 1","Mixed",3,1,1,2.4,1,1,310,0,0,0,1
6,"1w","Week 1","Mixed",3,2,2,0.066,1,1,310,0,0,0,1
6,"1w","Week 1","Mixed",3,3,3,0.251,1,1,310,0,0,0,1
6,"1w","Week 1","Mixed",3,4,4,0.217,1,1,310,0,0,0,1
6,"1w","Week 1","Mixed",3,5,5,0.2,1,1,310,0,0,0,1
6,"1w","Week 1","Mixed",3,6,6,0.117,1,1,310,0,0,0,1
6,"1w","Week 1","Mixed",3,7,7,0.15,1,0,310,0,0,0,1
6,"1w","Week 1","Mixed",3,8,8,0.167,1,1,310,0,0,0,1
6,"1w","Week 1","Mixed",3,9,9,0.216,1,0,310,0,0,0,1
6,"1w","Week 1","Mixed",3,10,10,2.067,0,0,310,0,1,0,0
6,"1w","Week 1","Mixed",3,11,11,0.183,0,1,310,0,1,0,0
6,"1w","Week 1","Mixed",3,12,12,0.1,0,0,310,1,1,0,0
6,"1w","Week 1","Mixed",3,13,13,0.717,0,0,310,0,1,1,1
6,"1w","Week 1","Mixed",3,14,14,0.8,1,0,310,0,0,1,0
6,"1w","Week 1","Mixed",3,15,15,0.184,1,0,310,0,0,1,0
6,"1w","Week 1","Mixed",3,16,16,0.816,1,0,310,0,0,1,0
6,"1w","Week 1","Mixed",3,17,17,0.1,1,0,310,0,0,1,0
6,"1w","Week 1","Mixed",3,18,18,0.85,0,1,310,0,1,1,1
6,"1w","Week 1","Mixed",3,19,19,0.034,0,0,310,0,1,1,1
6,"1w","Week 1","Mixed",3,20,20,0.1,0,1,310,0,1,1,1
6,"1w","Week 1","Mixed",3,21,21,0.15,0,1,310,0,1,1,1
6,"1w","Week 1","Mixed",3,22,22,1.017,0,1,310,0,1,1,1
6,"1w","Week 1","Mixed",3,23,23,0.1,0,0,310,0,1,1,1
6,"1w","Week 1","Mixed",3,24,24,0.05,0,1,310,1,1,1,1
6,"1w","Week 1","Mixed",3,25,25,0.133,0,0,310,0,1,0,0
6,"1w","Week 1","Mixed",3,26,26,0.917,0,0,310,0,1,0,0
6,"1w","Week 1","Mixed",3,27,27,1.284,0,0,310,0,1,0,0
6,"1w","Week 1","Mixed",3,28,28,0.566,1,1,310,0,0,0,1
6,"1w","Week 1","Mixed",3,29,29,0.484,1,1,310,0,0,0,1
6,"1w","Week 1","Mixed",3,30,30,0.733,1,1,310,0,0,0,1
6,"1w","Week 1","Mixed",3,31,31,0.117,1,1,310,0,0,0,1
6,"1w","Week 1","Mixed",3,32,32,0.8,1,0,310,0,0,0,1
6,"1w","Week 1","Mixed",3,33,33,0.8,1,0,310,0,0,0,1
6,"1w","Week 1","Mixed",3,34,34,0.85,1,1,310,0,0,0,1
6,"1w","Week 1","Mixed",3,35,35,0.666,1,1,310,0,0,0,1
6,"1w","Week 1","Positive",1,36,1,3.283,1,1,380,0,0,0,1
6,"1w","Week 1","Positive",1,37,2,0.867,0,0,380,0,1,0,0
6,"1w","Week 1","Positive",1,38,3,0.2,1,1,380,0,0,0,1
6,"1w","Week 1","Positive",1,39,4,0.101,1,0,380,0,0,0,1
6,"1w","Week 1","Positive",1,40,5,0.016,1,1,380,0,0,0,1
6,"1w","Week 1","Positive",1,41,6,0.333,1,1,380,0,0,0,1
6,"1w","Week 1","Positive",1,42,7,0.216,1,1,380,0,0,0,1
6,"1w","Week 1","Positive",1,43,8,0.1,1,1,380,0,0,0,1
6,"1w","Week 1","Positive",1,44,9,0.117,1,1,380,0,0,0,1
6,"1w","Week 1","Positive",1,45,10,1.8,1,1,380,0,0,0,1
6,"1w","Week 1","Positive",1,46,11,0.8,1,1,380,0,0,0,1
6,"1w","Week 1","Positive",1,47,12,0.684,1,1,380,1,0,0,1
6,"1w","Week 1","Positive",1,48,13,0.333,1,0,380,0,0,1,0
6,"1w","Week 1","Positive",1,49,14,1.466,0,1,380,0,1,1,1
6,"1w","Week 1","Positive",1,50,15,0.084,0,1,380,0,1,1,1
6,"1w","Week 1","Positive",1,51,16,0.117,0,1,380,0,1,1,1
6,"1w","Week 1","Positive",1,52,17,1.266,0,0,380,0,1,1,1
6,"1w","Week 1","Positive",1,53,18,0.433,0,1,380,0,1,1,1
6,"1w","Week 1","Positive",1,54,19,0.233,0,1,380,0,1,1,1
6,"1w","Week 1","Positive",1,55,20,0.233,0,1,380,0,1,1,1
6,"1w","Week 1","Positive",1,56,21,0.166,0,1,380,0,1,1,1
6,"1w","Week 1","Positive",1,57,22,0.201,0,1,380,0,1,1,1
6,"1w","Week 1","Positive",1,58,23,1.233,0,1,380,0,1,1,1
6,"1w","Week 1","Positive",1,59,24,0.217,0,0,380,1,1,1,1
6,"1w","Week 1","Positive",1,60,25,1.567,0,0,380,0,1,0,0
6,"1w","Week 1","Positive",1,61,26,0.117,1,0,380,0,0,0,1
6,"1w","Week 1","Positive",1,62,27,0.05,1,1,380,0,0,0,1
6,"1w","Week 1","Positive",1,63,28,0.067,1,1,380,0,0,0,1
6,"1w","Week 1","Positive",1,64,29,0.15,1,1,380,0,0,0,1
6,"1w","Week 1","Positive",1,65,30,0.184,1,1,380,0,0,0,1
6,"1w","Week 1","Positive",1,66,31,0.917,1,1,380,0,0,0,1
6,"1w","Week 1","Positive",1,67,32,0.233,1,1,380,0,0,0,1
6,"1w","Week 1","Positive",1,68,33,0.084,1,1,380,0,0,0,1
6,"1w","Week 1","Positive",1,69,34,0.2,1,1,380,0,0,0,1
6,"1w","Week 1","Positive",1,70,35,0.233,1,1,380,0,0,0,1
6,"1w","Week 1","Negative",2,71,1,1.984,1,0,280,0,0,1,0
6,"1w","Week 1","Negative",2,72,2,0.933,0,1,280,0,1,1,1
6,"1w","Week 1","Negative",2,73,3,0.6,0,1,280,0,1,1,1
6,"1w","Week 1","Negative",2,74,4,0.183,0,1,280,0,1,1,1
6,"1w","Week 1","Negative",2,75,5,2.017,0,1,280,0,1,1,1
6,"1w","Week 1","Negative",2,76,6,0.317,0,1,280,0,1,1,1
6,"1w","Week 1","Negative",2,77,7,0.15,0,0,280,0,1,1,1
6,"1w","Week 1","Negative",2,78,8,0.433,0,1,280,0,1,1,1
6,"1w","Week 1","Negative",2,79,9,0.3,0,1,280,0,1,1,1
6,"1w","Week 1","Negative",2,80,10,0.783,0,1,280,0,1,1,1
6,"1w","Week 1","Negative",2,81,11,0.533,0,1,280,0,1,1,1
6,"1w","Week 1","Negative",2,82,12,0.566,0,1,280,1,1,1,1
6,"1w","Week 1","Negative",2,83,13,0.617,0,0,280,0,1,0,0
6,"1w","Week 1","Negative",2,84,14,0.734,0,0,280,0,1,0,0
6,"1w","Week 1","Negative",2,85,15,0.05,1,1,280,0,0,0,1
6,"1w","Week 1","Negative",2,86,16,0.983,1,1,280,0,0,0,1
6,"1w","Week 1","Negative",2,87,17,0.95,1,1,280,0,0,0,1
6,"1w","Week 1","Negative",2,88,18,0.6,1,1,280,0,0,0,1
6,"1w","Week 1","Negative",2,89,19,0.35,1,0,280,0,0,0,1
6,"1w","Week 1","Negative",2,90,20,0.217,1,1,280,0,0,0,1
6,"1w","Week 1","Negative",2,91,21,0.184,1,1,280,0,0,0,1
6,"1w","Week 1","Negative",2,92,22,0.267,1,1,280,0,0,0,1
6,"1w","Week 1","Negative",2,93,23,0.2,1,1,280,0,0,0,1
6,"1w","Week 1","Negative",2,94,24,0.75,1,0,280,1,0,0,1
6,"1w","Week 1","Negative",2,95,25,2.15,0,1,280,0,1,1,1
6,"1w","Week 1","Negative",2,96,26,1.084,0,0,280,0,1,1,1
6,"1w","Week 1","Negative",2,97,27,0.601,1,0,280,0,0,1,0
6,"1w","Week 1","Negative",2,98,28,0.283,1,0,280,0,0,1,0
6,"1w","Week 1","Negative",2,99,29,0.233,0,1,280,0,1,1,1
6,"1w","Week 1","Negative",2,100,30,0.433,0,0,280,0,1,1,1
6,"1w","Week 1","Negative",2,101,31,0.184,0,1,280,0,1,1,1
6,"1w","Week 1","Negative",2,102,32,0.25,0,1,280,0,1,1,1
6,"1w","Week 1","Negative",2,103,33,0.217,0,1,280,0,1,1,1
6,"1w","Week 1","Negative",2,104,34,0.133,0,1,280,0,1,1,1
6,"1w","Week 1","Negative",2,105,35,0.234,0,1,280,0,1,1,1
6,"m1","Month 1","Mixed",1,1,1,0.95,1,0,290,0,0,1,0
6,"m1","Month 1","Mixed",1,2,2,2.25,0,1,290,0,1,1,1
6,"m1","Month 1","Mixed",1,3,3,1.134,0,1,290,0,1,1,1
6,"m1","Month 1","Mixed",1,4,4,0.516,0,1,290,0,1,1,1
6,"m1","Month 1","Mixed",1,5,5,0.167,0,1,290,0,1,1,1
6,"m1","Month 1","Mixed",1,6,6,0.299,0,1,290,0,1,1,1
6,"m1","Month 1","Mixed",1,7,7,0.366,0,1,290,0,1,1,1
6,"m1","Month 1","Mixed",1,8,8,0.15,0,1,290,0,1,1,1
6,"m1","Month 1","Mixed",1,9,9,0.266,0,0,290,0,1,1,1
6,"m1","Month 1","Mixed",1,10,10,1.484,1,0,290,0,0,1,0
6,"m1","Month 1","Mixed",1,11,11,0.066,0,1,290,0,1,1,1
6,"m1","Month 1","Mixed",1,12,12,0.434,0,1,290,1,1,1,1
6,"m1","Month 1","Mixed",1,13,13,0.199,0,1,290,0,1,0,0
6,"m1","Month 1","Mixed",1,14,14,0.316,0,1,290,0,1,0,0
6,"m1","Month 1","Mixed",1,15,15,0.283,0,0,290,0,1,0,0
6,"m1","Month 1","Mixed",1,16,16,0.816,0,0,290,0,1,0,0
6,"m1","Month 1","Mixed",1,17,17,0.05,1,1,290,0,0,0,1
6,"m1","Month 1","Mixed",1,18,18,0.068,1,1,290,0,0,0,1
6,"m1","Month 1","Mixed",1,19,19,0.133,1,1,290,0,0,0,1
6,"m1","Month 1","Mixed",1,20,20,0.317,1,1,290,0,0,0,1
6,"m1","Month 1","Mixed",1,21,21,0.067,1,1,290,0,0,0,1
6,"m1","Month 1","Mixed",1,22,22,1.101,1,1,290,0,0,0,1
6,"m1","Month 1","Mixed",1,23,23,0.05,1,1,290,0,0,0,1
6,"m1","Month 1","Mixed",1,24,24,0.083,1,1,290,1,0,0,1
6,"m1","Month 1","Mixed",1,25,25,0.067,1,0,290,0,0,1,0
6,"m1","Month 1","Mixed",1,26,26,0.217,1,1,290,0,0,1,0
6,"m1","Month 1","Mixed",1,27,27,0.067,1,0,290,0,0,1,0
6,"m1","Month 1","Mixed",1,28,28,0.266,0,0,290,0,1,1,1
6,"m1","Month 1","Mixed",1,29,29,0.967,0,1,290,0,1,1,1
6,"m1","Month 1","Mixed",1,30,30,1.283,0,1,290,0,1,1,1
6,"m1","Month 1","Mixed",1,31,31,0.1,0,1,290,0,1,1,1
6,"m1","Month 1","Mixed",1,32,32,0.2,0,1,290,0,1,1,1
6,"m1","Month 1","Mixed",1,33,33,0.316,0,1,290,0,1,1,1
6,"m1","Month 1","Mixed",1,34,34,0.416,0,1,290,0,1,1,1
6,"m1","Month 1","Mixed",1,35,35,0.184,0,1,290,0,1,1,1
6,"m1","Month 1","Positive",3,36,1,1.017,1,0,390,0,0,1,0
6,"m1","Month 1","Positive",3,37,2,0.017,0,0,390,0,1,1,1
6,"m1","Month 1","Positive",3,38,3,1.133,0,1,390,0,1,1,1
6,"m1","Month 1","Positive",3,39,4,0.516,0,1,390,0,1,1,1
6,"m1","Month 1","Positive",3,40,5,0.183,0,1,390,0,1,1,1
6,"m1","Month 1","Positive",3,41,6,0.1,0,1,390,0,1,1,1
6,"m1","Month 1","Positive",3,42,7,0.183,0,1,390,0,1,1,1
6,"m1","Month 1","Positive",3,43,8,0.2,0,1,390,0,1,1,1
6,"m1","Month 1","Positive",3,44,9,0.034,0,0,390,0,1,1,1
6,"m1","Month 1","Positive",3,45,10,0.683,0,0,390,0,1,1,1
6,"m1","Month 1","Positive",3,46,11,0.85,1,0,390,0,0,1,0
6,"m1","Month 1","Positive",3,47,12,0.033,1,0,390,1,0,1,0
6,"m1","Month 1","Positive",3,48,13,0.65,0,0,390,0,1,0,0
6,"m1","Month 1","Positive",3,49,14,0.633,0,0,390,0,1,0,0
6,"m1","Month 1","Positive",3,50,15,1.233,1,1,390,0,0,0,1
6,"m1","Month 1","Positive",3,51,16,0.4,1,1,390,0,0,0,1
6,"m1","Month 1","Positive",3,52,17,0.167,1,1,390,0,0,0,1
6,"m1","Month 1","Positive",3,53,18,0.267,1,1,390,0,0,0,1
6,"m1","Month 1","Positive",3,54,19,0.05,1,1,390,0,0,0,1
6,"m1","Month 1","Positive",3,55,20,0.8,1,0,390,0,0,0,1
6,"m1","Month 1","Positive",3,56,21,0.067,1,1,390,0,0,0,1
6,"m1","Month 1","Positive",3,57,22,0.584,1,1,390,0,0,0,1
6,"m1","Month 1","Positive",3,58,23,0.4,1,0,390,0,0,0,1
6,"m1","Month 1","Positive",3,59,24,0.033,1,1,390,1,0,0,1
6,"m1","Month 1","Positive",3,60,25,0.033,1,0,390,0,0,1,0
6,"m1","Month 1","Positive",3,61,26,0.084,0,1,390,0,1,1,1
6,"m1","Month 1","Positive",3,62,27,0.116,0,1,390,0,1,1,1
6,"m1","Month 1","Positive",3,63,28,0.05,0,1,390,0,1,1,1
6,"m1","Month 1","Positive",3,64,29,0.218,0,0,390,0,1,1,1
6,"m1","Month 1","Positive",3,65,30,2,1,0,390,0,0,1,0
6,"m1","Month 1","Positive",3,66,31,0.7,0,1,390,0,1,1,1
6,"m1","Month 1","Positive",3,67,32,0.833,0,1,390,0,1,1,1
6,"m1","Month 1","Positive",3,68,33,0.35,0,0,390,0,1,1,1
6,"m1","Month 1","Positive",3,69,34,0.134,0,1,390,0,1,1,1
6,"m1","Month 1","Positive",3,70,35,0.134,0,1,390,0,1,1,1
6,"m1","Month 1","Negative",2,71,1,1.884,1,1,180,0,0,0,1
6,"m1","Month 1","Negative",2,72,2,1.6,0,0,180,0,1,0,0
6,"m1","Month 1","Negative",2,73,3,0.751,1,1,180,0,0,0,1
6,"m1","Month 1","Negative",2,74,4,1.05,1,1,180,0,0,0,1
6,"m1","Month 1","Negative",2,75,5,0.75,1,1,180,0,0,0,1
6,"m1","Month 1","Negative",2,76,6,0.449,1,1,180,0,0,0,1
6,"m1","Month 1","Negative",2,77,7,0.067,1,1,180,0,0,0,1
6,"m1","Month 1","Negative",2,78,8,0.184,1,1,180,0,0,0,1
6,"m1","Month 1","Negative",2,79,9,0.066,1,1,180,0,0,0,1
6,"m1","Month 1","Negative",2,80,10,0.1,1,1,180,0,0,0,1
6,"m1","Month 1","Negative",2,81,11,0.1,1,1,180,0,0,0,1
6,"m1","Month 1","Negative",2,82,12,0.15,1,0,180,1,0,0,1
6,"m1","Month 1","Negative",2,83,13,0.25,1,0,180,0,0,1,0
6,"m1","Month 1","Negative",2,84,14,0.9,0,1,180,0,1,1,1
6,"m1","Month 1","Negative",2,85,15,0.1,0,1,180,0,1,1,1
6,"m1","Month 1","Negative",2,86,16,0.083,0,1,180,0,1,1,1
6,"m1","Month 1","Negative",2,87,17,0.033,0,0,180,0,1,1,1
6,"m1","Month 1","Negative",2,88,18,1.383,1,0,180,0,0,1,0
6,"m1","Month 1","Negative",2,89,19,0.283,1,0,180,0,0,1,0
6,"m1","Month 1","Negative",2,90,20,0.684,0,1,180,0,1,1,1
6,"m1","Month 1","Negative",2,91,21,0.184,0,1,180,0,1,1,1
6,"m1","Month 1","Negative",2,92,22,0.151,0,1,180,0,1,1,1
6,"m1","Month 1","Negative",2,93,23,0.2,0,1,180,0,1,1,1
6,"m1","Month 1","Negative",2,94,24,0.117,0,1,180,1,1,1,1
6,"m1","Month 1","Negative",2,95,25,0.216,0,0,180,0,1,0,0
6,"m1","Month 1","Negative",2,96,26,0.317,1,1,180,0,0,0,1
6,"m1","Month 1","Negative",2,97,27,0.183,1,1,180,0,0,0,1
6,"m1","Month 1","Negative",2,98,28,0.966,1,0,180,0,0,0,1
6,"m1","Month 1","Negative",2,99,29,0.367,0,0,180,0,1,0,0
6,"m1","Month 1","Negative",2,100,30,0.417,0,1,180,0,1,0,0
6,"m1","Month 1","Negative",2,101,31,0.4,0,1,180,0,1,0,0
6,"m1","Month 1","Negative",2,102,32,0.183,0,0,180,0,1,0,0
6,"m1","Month 1","Negative",2,103,33,0.101,1,0,180,0,0,0,1
6,"m1","Month 1","Negative",2,104,34,0.867,1,1,180,0,0,0,1
6,"m1","Month 1","Negative",2,105,35,0.25,1,1,180,0,0,0,1
6,"m2","Month 2","Mixed",1,1,1,0.717,1,1,230,0,0,0,1
6,"m2","Month 2","Mixed",1,2,2,0.817,1,1,230,0,0,0,1
6,"m2","Month 2","Mixed",1,3,3,0.817,1,1,230,0,0,0,1
6,"m2","Month 2","Mixed",1,4,4,0.8,1,1,230,0,0,0,1
6,"m2","Month 2","Mixed",1,5,5,0.433,1,1,230,0,0,0,1
6,"m2","Month 2","Mixed",1,6,6,0.334,1,1,230,0,0,0,1
6,"m2","Month 2","Mixed",1,7,7,0.834,1,1,230,0,0,0,1
6,"m2","Month 2","Mixed",1,8,8,0.467,1,1,230,0,0,0,1
6,"m2","Month 2","Mixed",1,9,9,0.833,1,0,230,0,0,0,1
6,"m2","Month 2","Mixed",1,10,10,0.65,1,1,230,0,0,0,1
6,"m2","Month 2","Mixed",1,11,11,0.233,1,1,230,0,0,0,1
6,"m2","Month 2","Mixed",1,12,12,0.317,1,1,230,0,0,0,1
6,"m2","Month 2","Mixed",1,13,13,0.15,1,1,230,1,0,0,1
6,"m2","Month 2","Mixed",1,14,14,0.083,1,0,230,0,0,1,0
6,"m2","Month 2","Mixed",1,15,15,0.816,1,1,230,0,0,1,0
6,"m2","Month 2","Mixed",1,16,16,0.266,1,1,230,0,0,1,0
6,"m2","Month 2","Mixed",1,17,17,0.117,1,0,230,0,0,1,0
6,"m2","Month 2","Mixed",1,18,18,0.617,1,1,230,0,0,1,0
6,"m2","Month 2","Mixed",1,19,19,0.199,1,0,230,0,0,1,0
6,"m2","Month 2","Mixed",1,20,20,0.267,1,0,230,0,0,1,0
6,"m2","Month 2","Mixed",1,21,21,1.15,0,1,230,0,1,1,1
6,"m2","Month 2","Mixed",1,22,22,0.533,0,0,230,0,1,1,1
6,"m2","Month 2","Mixed",1,23,23,0.716,0,1,230,0,1,1,1
6,"m2","Month 2","Mixed",1,24,24,0.583,0,0,230,0,1,1,1
6,"m2","Month 2","Mixed",1,25,25,0.05,1,0,230,1,0,1,0
6,"m2","Month 2","Mixed",1,26,26,0.066,1,1,230,0,0,0,1
6,"m2","Month 2","Mixed",1,27,27,0.2,1,1,230,0,0,0,1
6,"m2","Month 2","Mixed",1,28,28,0.834,1,1,230,0,0,0,1
6,"m2","Month 2","Mixed",1,29,29,0.767,1,1,230,0,0,0,1
6,"m2","Month 2","Mixed",1,30,30,0.016,1,1,230,0,0,0,1
6,"m2","Month 2","Mixed",1,31,31,0.667,1,0,230,0,0,0,1
6,"m2","Month 2","Mixed",1,32,32,0.117,1,0,230,0,0,0,1
6,"m2","Month 2","Mixed",1,33,33,0.617,0,1,230,0,1,0,0
6,"m2","Month 2","Mixed",1,34,34,0.9,0,1,230,0,1,0,0
6,"m2","Month 2","Mixed",1,35,35,0.05,0,0,230,0,1,0,0
6,"m2","Month 2","Positive",3,36,1,1.666,1,0,310,0,0,0,1
6,"m2","Month 2","Positive",3,37,2,0.866,1,1,310,0,0,0,1
6,"m2","Month 2","Positive",3,38,3,0.666,1,1,310,0,0,0,1
6,"m2","Month 2","Positive",3,39,4,0.567,1,1,310,0,0,0,1
6,"m2","Month 2","Positive",3,40,5,0.167,1,0,310,0,0,0,1
6,"m2","Month 2","Positive",3,41,6,0.817,1,1,310,0,0,0,1
6,"m2","Month 2","Positive",3,42,7,0.35,1,1,310,0,0,0,1
6,"m2","Month 2","Positive",3,43,8,0.066,1,1,310,0,0,0,1
6,"m2","Month 2","Positive",3,44,9,0.9,1,1,310,0,0,0,1
6,"m2","Month 2","Positive",3,45,10,0.784,1,1,310,0,0,0,1
6,"m2","Month 2","Positive",3,46,11,0.184,1,1,310,0,0,0,1
6,"m2","Month 2","Positive",3,47,12,0.283,1,1,310,0,0,0,1
6,"m2","Month 2","Positive",3,48,13,0.1,1,1,310,1,0,0,1
6,"m2","Month 2","Positive",3,49,14,0.067,1,0,310,0,0,1,0
6,"m2","Month 2","Positive",3,50,15,0.283,1,0,310,0,0,1,0
6,"m2","Month 2","Positive",3,51,16,1.034,1,0,310,0,0,1,0
6,"m2","Month 2","Positive",3,52,17,0.551,0,0,310,0,1,1,1
6,"m2","Month 2","Positive",3,53,18,0.8,0,1,310,0,1,1,1
6,"m2","Month 2","Positive",3,54,19,0.75,0,1,310,0,1,1,1
6,"m2","Month 2","Positive",3,55,20,0.068,0,1,310,0,1,1,1
6,"m2","Month 2","Positive",3,56,21,0.651,0,1,310,0,1,1,1
6,"m2","Month 2","Positive",3,57,22,0.167,0,1,310,0,1,1,1
6,"m2","Month 2","Positive",3,58,23,0.117,0,1,310,0,1,1,1
6,"m2","Month 2","Positive",3,59,24,0.183,0,1,310,0,1,1,1
6,"m2","Month 2","Positive",3,60,25,0.117,0,1,310,1,1,1,1
6,"m2","Month 2","Positive",3,61,26,0.133,0,0,310,0,1,0,0
6,"m2","Month 2","Positive",3,62,27,1.134,0,0,310,0,1,0,0
6,"m2","Month 2","Positive",3,63,28,0.733,1,1,310,0,0,0,1
6,"m2","Month 2","Positive",3,64,29,0.217,1,1,310,0,0,0,1
6,"m2","Month 2","Positive",3,65,30,0.167,1,1,310,0,0,0,1
6,"m2","Month 2","Positive",3,66,31,14.784,1,1,310,0,0,0,1
6,"m2","Month 2","Positive",3,67,32,0.083,1,0,310,0,0,0,1
6,"m2","Month 2","Positive",3,68,33,0.183,1,1,310,0,0,0,1
6,"m2","Month 2","Positive",3,69,34,0.75,1,1,310,0,0,0,1
6,"m2","Month 2","Positive",3,70,35,0.034,1,1,310,0,0,0,1
6,"m2","Month 2","Negative",2,71,1,1.834,1,0,50,0,0,1,0
6,"m2","Month 2","Negative",2,72,2,1.034,0,1,50,0,1,1,1
6,"m2","Month 2","Negative",2,73,3,0.867,0,1,50,0,1,1,1
6,"m2","Month 2","Negative",2,74,4,0.867,0,1,50,0,1,1,1
6,"m2","Month 2","Negative",2,75,5,0.251,0,1,50,0,1,1,1
6,"m2","Month 2","Negative",2,76,6,0.3,0,1,50,0,1,1,1
6,"m2","Month 2","Negative",2,77,7,0.1,0,1,50,0,1,1,1
6,"m2","Month 2","Negative",2,78,8,0.183,0,0,50,0,1,1,1
6,"m2","Month 2","Negative",2,79,9,0.818,0,0,50,0,1,1,1
6,"m2","Month 2","Negative",2,80,10,0.684,1,0,50,0,0,1,0
6,"m2","Month 2","Negative",2,81,11,0.05,1,0,50,0,0,1,0
6,"m2","Month 2","Negative",2,82,12,0.683,0,1,50,0,1,1,1
6,"m2","Month 2","Negative",2,83,13,0.3,0,1,50,1,1,1,1
6,"m2","Month 2","Negative",2,84,14,0.634,0,0,50,0,1,0,0
6,"m2","Month 2","Negative",2,85,15,0.8,0,0,50,0,1,0,0
6,"m2","Month 2","Negative",2,86,16,0.717,0,0,50,0,1,0,0
6,"m2","Month 2","Negative",2,87,17,0.1,1,1,50,0,0,0,1
6,"m2","Month 2","Negative",2,88,18,0.167,1,1,50,0,0,0,1
6,"m2","Month 2","Negative",2,89,19,0.1,1,1,50,0,0,0,1
6,"m2","Month 2","Negative",2,90,20,0.167,1,0,50,0,0,0,1
6,"m2","Month 2","Negative",2,91,21,0.418,0,0,50,0,1,0,0
6,"m2","Month 2","Negative",2,92,22,0.3,1,1,50,0,0,0,1
6,"m2","Month 2","Negative",2,93,23,0.833,1,1,50,0,0,0,1
6,"m2","Month 2","Negative",2,94,24,0.217,1,1,50,0,0,0,1
6,"m2","Month 2","Negative",2,95,25,0.867,1,1,50,1,0,0,1
6,"m2","Month 2","Negative",2,96,26,0.3,1,0,50,0,0,1,0
6,"m2","Month 2","Negative",2,97,27,0.7,0,0,50,0,1,1,1
6,"m2","Month 2","Negative",2,98,28,0.966,1,0,50,0,0,1,0
6,"m2","Month 2","Negative",2,99,29,0.633,1,0,50,0,0,1,0
6,"m2","Month 2","Negative",2,100,30,0.716,1,0,50,0,0,1,0
6,"m2","Month 2","Negative",2,101,31,0.033,0,0,50,0,1,1,1
6,"m2","Month 2","Negative",2,102,32,0.15,0,1,50,0,1,1,1
6,"m2","Month 2","Negative",2,103,33,0.233,0,1,50,0,1,1,1
6,"m2","Month 2","Negative",2,104,34,0.183,0,0,50,0,1,1,1
6,"m2","Month 2","Negative",2,105,35,0.717,0,0,50,0,1,1,1
6,"m3","Month 3","Mixed",3,1,1,2.117,1,0,390,0,0,1,0
6,"m3","Month 3","Mixed",3,2,2,1.317,0,1,390,0,1,1,1
6,"m3","Month 3","Mixed",3,3,3,1.133,0,0,390,0,1,1,1
6,"m3","Month 3","Mixed",3,4,4,0.216,0,1,390,0,1,1,1
6,"m3","Month 3","Mixed",3,5,5,1.184,0,1,390,0,1,1,1
6,"m3","Month 3","Mixed",3,6,6,0.617,0,1,390,0,1,1,1
6,"m3","Month 3","Mixed",3,7,7,0.567,0,0,390,0,1,1,1
6,"m3","Month 3","Mixed",3,8,8,0.733,1,0,390,0,0,1,0
6,"m3","Month 3","Mixed",3,9,9,0.417,0,1,390,0,1,1,1
6,"m3","Month 3","Mixed",3,10,10,0.617,0,1,390,0,1,1,1
6,"m3","Month 3","Mixed",3,11,11,0.167,0,1,390,0,1,1,1
6,"m3","Month 3","Mixed",3,12,12,0.116,0,1,390,0,1,1,1
6,"m3","Month 3","Mixed",3,13,13,0.833,0,1,390,1,1,1,1
6,"m3","Month 3","Mixed",3,14,14,0.817,0,1,390,0,1,0,0
6,"m3","Month 3","Mixed",3,15,15,0.85,0,0,390,0,1,0,0
6,"m3","Month 3","Mixed",3,16,16,1,1,1,390,0,0,0,1
6,"m3","Month 3","Mixed",3,17,17,0.785,1,1,390,0,0,0,1
6,"m3","Month 3","Mixed",3,18,18,0.817,1,1,390,0,0,0,1
6,"m3","Month 3","Mixed",3,19,19,0.517,1,1,390,0,0,0,1
6,"m3","Month 3","Mixed",3,20,20,0.333,1,1,390,0,0,0,1
6,"m3","Month 3","Mixed",3,21,21,0.567,1,0,390,0,0,0,1
6,"m3","Month 3","Mixed",3,22,22,0.333,0,0,390,0,1,0,0
6,"m3","Month 3","Mixed",3,23,23,1.183,0,0,390,0,1,0,0
6,"m3","Month 3","Mixed",3,24,24,1.132,1,1,390,0,0,0,1
6,"m3","Month 3","Mixed",3,25,25,1.316,1,1,390,1,0,0,1
6,"m3","Month 3","Mixed",3,26,26,1.6,1,0,390,0,0,1,0
6,"m3","Month 3","Mixed",3,27,27,2.651,1,0,390,0,0,1,0
6,"m3","Month 3","Mixed",3,28,28,0.634,0,1,390,0,1,1,1
6,"m3","Month 3","Mixed",3,29,29,1.017,0,1,390,0,1,1,1
6,"m3","Month 3","Mixed",3,30,30,0.75,0,1,390,0,1,1,1
6,"m3","Month 3","Mixed",3,31,31,0.884,0,1,390,0,1,1,1
6,"m3","Month 3","Mixed",3,32,32,0.55,0,1,390,0,1,1,1
6,"m3","Month 3","Mixed",3,33,33,0.551,0,1,390,0,1,1,1
6,"m3","Month 3","Mixed",3,34,34,0.95,0,0,390,0,1,1,1
6,"m3","Month 3","Mixed",3,35,35,1.084,0,1,390,0,1,1,1
6,"m3","Month 3","Positive",1,36,1,1.067,1,0,340,0,0,1,0
6,"m3","Month 3","Positive",1,37,2,0.934,0,0,340,0,1,1,1
6,"m3","Month 3","Positive",1,38,3,0.6,0,1,340,0,1,1,1
6,"m3","Month 3","Positive",1,39,4,0.25,0,1,340,0,1,1,1
6,"m3","Month 3","Positive",1,40,5,0.416,0,1,340,0,1,1,1
6,"m3","Month 3","Positive",1,41,6,0.3,0,1,340,0,1,1,1
6,"m3","Month 3","Positive",1,42,7,0.434,0,1,340,0,1,1,1
6,"m3","Month 3","Positive",1,43,8,0.267,0,1,340,0,1,1,1
6,"m3","Month 3","Positive",1,44,9,0.717,0,1,340,0,1,1,1
6,"m3","Month 3","Positive",1,45,10,0.217,0,1,340,0,1,1,1
6,"m3","Month 3","Positive",1,46,11,0.166,0,1,340,0,1,1,1
6,"m3","Month 3","Positive",1,47,12,0.684,0,1,340,0,1,1,1
6,"m3","Month 3","Positive",1,48,13,0.766,0,1,340,1,1,1,1
6,"m3","Month 3","Positive",1,49,14,0.216,0,0,340,0,1,0,0
6,"m3","Month 3","Positive",1,50,15,0.55,0,0,340,0,1,0,0
6,"m3","Month 3","Positive",1,51,16,0.634,1,1,340,0,0,0,1
6,"m3","Month 3","Positive",1,52,17,0.2,1,1,340,0,0,0,1
6,"m3","Month 3","Positive",1,53,18,0.233,1,1,340,0,0,0,1
6,"m3","Month 3","Positive",1,54,19,0.234,1,1,340,0,0,0,1
6,"m3","Month 3","Positive",1,55,20,0.234,1,1,340,0,0,0,1
6,"m3","Month 3","Positive",1,56,21,0.233,1,1,340,0,0,0,1
6,"m3","Month 3","Positive",1,57,22,1.767,1,1,340,0,0,0,1
6,"m3","Month 3","Positive",1,58,23,0.834,1,1,340,0,0,0,1
6,"m3","Month 3","Positive",1,59,24,0.017,1,1,340,0,0,0,1
6,"m3","Month 3","Positive",1,60,25,0.084,1,0,340,1,0,0,1
6,"m3","Month 3","Positive",1,61,26,0.2,1,1,340,0,0,1,0
6,"m3","Month 3","Positive",1,62,27,0.116,1,0,340,0,0,1,0
6,"m3","Month 3","Positive",1,63,28,1.15,1,0,340,0,0,1,0
6,"m3","Month 3","Positive",1,64,29,1.283,0,1,340,0,1,1,1
6,"m3","Month 3","Positive",1,65,30,1.167,0,0,340,0,1,1,1
6,"m3","Month 3","Positive",1,66,31,0.267,0,1,340,0,1,1,1
6,"m3","Month 3","Positive",1,67,32,0.217,0,0,340,0,1,1,1
6,"m3","Month 3","Positive",1,68,33,0.067,1,0,340,0,0,1,0
6,"m3","Month 3","Positive",1,69,34,0.166,1,0,340,0,0,1,0
6,"m3","Month 3","Positive",1,70,35,0.766,1,1,340,0,0,1,0
6,"m3","Month 3","Negative",2,71,1,2.2,1,1,260,0,0,0,1
6,"m3","Month 3","Negative",2,72,2,1.101,1,1,260,0,0,0,1
6,"m3","Month 3","Negative",2,73,3,1.05,1,1,260,0,0,0,1
6,"m3","Month 3","Negative",2,74,4,0.3,1,1,260,0,0,0,1
6,"m3","Month 3","Negative",2,75,5,0.967,1,1,260,0,0,0,1
6,"m3","Month 3","Negative",2,76,6,0.4,1,1,260,0,0,0,1
6,"m3","Month 3","Negative",2,77,7,0.95,1,1,260,0,0,0,1
6,"m3","Month 3","Negative",2,78,8,0.867,1,0,260,0,0,0,1
6,"m3","Month 3","Negative",2,79,9,1.434,1,1,260,0,0,0,1
6,"m3","Month 3","Negative",2,80,10,0.517,0,0,260,0,1,0,0
6,"m3","Month 3","Negative",2,81,11,0.783,0,0,260,0,1,0,0
6,"m3","Month 3","Negative",2,82,12,0.867,1,1,260,0,0,0,1
6,"m3","Month 3","Negative",2,83,13,0.166,1,1,260,1,0,0,1
6,"m3","Month 3","Negative",2,84,14,0.2,1,0,260,0,0,1,0
6,"m3","Month 3","Negative",2,85,15,0.601,1,0,260,0,0,1,0
6,"m3","Month 3","Negative",2,86,16,0.117,0,1,260,0,1,1,1
6,"m3","Month 3","Negative",2,87,17,0.517,0,1,260,0,1,1,1
6,"m3","Month 3","Negative",2,88,18,1.1,0,1,260,0,1,1,1
6,"m3","Month 3","Negative",2,89,19,0.95,0,1,260,0,1,1,1
6,"m3","Month 3","Negative",2,90,20,0.766,0,1,260,0,1,1,1
6,"m3","Month 3","Negative",2,91,21,0.667,0,1,260,0,1,1,1
6,"m3","Month 3","Negative",2,92,22,0.716,0,1,260,0,1,1,1
6,"m3","Month 3","Negative",2,93,23,1.117,0,1,260,0,1,1,1
6,"m3","Month 3","Negative",2,94,24,1.266,0,1,260,0,1,1,1
6,"m3","Month 3","Negative",2,95,25,0.1,0,1,260,1,1,1,1
6,"m3","Month 3","Negative",2,96,26,1.4,0,0,260,0,1,0,0
6,"m3","Month 3","Negative",2,97,27,1.967,1,1,260,0,0,0,1
6,"m3","Month 3","Negative",2,98,28,1.15,1,0,260,0,0,0,1
6,"m3","Month 3","Negative",2,99,29,1.9,0,1,260,0,1,0,0
6,"m3","Month 3","Negative",2,100,30,0.984,0,0,260,0,1,0,0
6,"m3","Month 3","Negative",2,101,31,0.316,1,1,260,0,0,0,1
6,"m3","Month 3","Negative",2,102,32,0.701,1,1,260,0,0,0,1
6,"m3","Month 3","Negative",2,103,33,1.05,1,1,260,0,0,0,1
6,"m3","Month 3","Negative",2,104,34,0.333,1,1,260,0,0,0,1
6,"m3","Month 3","Negative",2,105,35,1.816,1,1,260,0,0,0,1
6,"m4","Month 4","Mixed",3,1,1,2.466,1,0,240,0,0,1,0
6,"m4","Month 4","Mixed",3,2,2,1.834,0,0,240,0,1,1,1
6,"m4","Month 4","Mixed",3,3,3,0.934,0,1,240,0,1,1,1
6,"m4","Month 4","Mixed",3,4,4,1.134,0,1,240,0,1,1,1
6,"m4","Month 4","Mixed",3,5,5,1.317,0,0,240,0,1,1,1
6,"m4","Month 4","Mixed",3,6,6,2.9,1,0,240,0,0,1,0
6,"m4","Month 4","Mixed",3,7,7,7.734,1,0,240,0,0,1,0
6,"m4","Month 4","Mixed",3,8,8,0.933,0,1,240,0,1,1,1
6,"m4","Month 4","Mixed",3,9,9,1.216,0,1,240,0,1,1,1
6,"m4","Month 4","Mixed",3,10,10,1.65,0,1,240,0,1,1,1
6,"m4","Month 4","Mixed",3,11,11,0.783,0,1,240,0,1,1,1
6,"m4","Month 4","Mixed",3,12,12,0.967,0,1,240,1,1,1,1
6,"m4","Month 4","Mixed",3,13,13,0.133,0,1,240,0,1,0,0
6,"m4","Month 4","Mixed",3,14,14,12.366,0,0,240,0,1,0,0
6,"m4","Month 4","Mixed",3,15,15,2.1,1,0,240,0,0,0,1
6,"m4","Month 4","Mixed",3,16,16,0.849,1,1,240,0,0,0,1
6,"m4","Month 4","Mixed",3,17,17,1.633,1,1,240,0,0,0,1
6,"m4","Month 4","Mixed",3,18,18,1.867,1,1,240,0,0,0,1
6,"m4","Month 4","Mixed",3,19,19,1.333,1,1,240,0,0,0,1
6,"m4","Month 4","Mixed",3,20,20,1.533,1,1,240,0,0,0,1
6,"m4","Month 4","Mixed",3,21,21,2.599,1,1,240,0,0,0,1
6,"m4","Month 4","Mixed",3,22,22,1.184,1,0,240,0,0,0,1
6,"m4","Month 4","Mixed",3,23,23,1.1,1,1,240,0,0,0,1
6,"m4","Month 4","Mixed",3,24,24,4.084,1,1,240,1,0,0,1
6,"m4","Month 4","Mixed",3,25,25,2.233,1,0,240,0,0,1,0
6,"m4","Month 4","Mixed",3,26,26,1.966,1,0,240,0,0,1,0
6,"m4","Month 4","Mixed",3,27,27,0.516,0,1,240,0,1,1,1
6,"m4","Month 4","Mixed",3,28,28,0.95,0,0,240,0,1,1,1
6,"m4","Month 4","Mixed",3,29,29,1.034,1,0,240,0,0,1,0
6,"m4","Month 4","Mixed",3,30,30,2.7,1,0,240,0,0,1,0
6,"m4","Month 4","Mixed",3,31,31,0.733,0,1,240,0,1,1,1
6,"m4","Month 4","Mixed",3,32,32,1.517,0,1,240,0,1,1,1
6,"m4","Month 4","Mixed",3,33,33,1.516,0,1,240,0,1,1,1
6,"m4","Month 4","Mixed",3,34,34,0.999,0,0,240,0,1,1,1
6,"m4","Month 4","Mixed",3,35,35,14.934,1,0,240,0,0,1,0
6,"m4","Month 4","Positive",2,36,1,2.516,1,0,190,0,0,0,1
6,"m4","Month 4","Positive",2,37,2,0.967,0,0,190,0,1,0,0
6,"m4","Month 4","Positive",2,38,3,1.05,1,0,190,0,0,0,1
6,"m4","Month 4","Positive",2,39,4,0.367,0,1,190,0,1,0,0
6,"m4","Month 4","Positive",2,40,5,1.867,0,0,190,0,1,0,0
6,"m4","Month 4","Positive",2,41,6,2.483,0,0,190,0,1,0,0
6,"m4","Month 4","Positive",2,42,7,1.45,1,1,190,0,0,0,1
6,"m4","Month 4","Positive",2,43,8,2.017,1,1,190,0,0,0,1
6,"m4","Month 4","Positive",2,44,9,1.334,1,0,190,0,0,0,1
6,"m4","Month 4","Positive",2,45,10,0.783,1,1,190,0,0,0,1
6,"m4","Month 4","Positive",2,46,11,0.766,1,1,190,0,0,0,1
6,"m4","Month 4","Positive",2,47,12,18.017,1,1,190,1,0,0,1
6,"m4","Month 4","Positive",2,48,13,1.533,1,0,190,0,0,1,0
6,"m4","Month 4","Positive",2,49,14,0.767,1,1,190,0,0,1,0
6,"m4","Month 4","Positive",2,50,15,0.767,1,0,190,0,0,1,0
6,"m4","Month 4","Positive",2,51,16,0.184,1,0,190,0,0,1,0
6,"m4","Month 4","Positive",2,52,17,0.733,0,1,190,0,1,1,1
6,"m4","Month 4","Positive",2,53,18,1.234,0,1,190,0,1,1,1
6,"m4","Month 4","Positive",2,54,19,0.983,0,0,190,0,1,1,1
6,"m4","Month 4","Positive",2,55,20,1.616,1,0,190,0,0,1,0
6,"m4","Month 4","Positive",2,56,21,0.5,0,1,190,0,1,1,1
6,"m4","Month 4","Positive",2,57,22,0.8,0,1,190,0,1,1,1
6,"m4","Month 4","Positive",2,58,23,0.867,0,1,190,0,1,1,1
6,"m4","Month 4","Positive",2,59,24,1.35,0,1,190,1,1,1,1
6,"m4","Month 4","Positive",2,60,25,1.466,0,1,190,0,1,0,0
6,"m4","Month 4","Positive",2,61,26,14.983,0,0,190,0,1,0,0
6,"m4","Month 4","Positive",2,62,27,0.684,1,1,190,0,0,0,1
6,"m4","Month 4","Positive",2,63,28,1.233,1,1,190,0,0,0,1
6,"m4","Month 4","Positive",2,64,29,1.033,1,1,190,0,0,0,1
6,"m4","Month 4","Positive",2,65,30,0.933,1,1,190,0,0,0,1
6,"m4","Month 4","Positive",2,66,31,0.65,1,1,190,0,0,0,1
6,"m4","Month 4","Positive",2,67,32,0.75,1,1,190,0,0,0,1
6,"m4","Month 4","Positive",2,68,33,0.616,1,1,190,0,0,0,1
6,"m4","Month 4","Positive",2,69,34,2.05,1,0,190,0,0,0,1
6,"m4","Month 4","Positive",2,70,35,0.167,1,1,190,0,0,0,1
6,"m4","Month 4","Negative",1,71,1,5.283,1,0,-30,0,0,1,0
6,"m4","Month 4","Negative",1,72,2,2.133,0,1,-30,0,1,1,1
6,"m4","Month 4","Negative",1,73,3,1.084,1,0,-30,0,0,1,0
6,"m4","Month 4","Negative",1,74,4,2.566,1,0,-30,0,0,1,0
6,"m4","Month 4","Negative",1,75,5,7.716,0,1,-30,0,1,1,1
6,"m4","Month 4","Negative",1,76,6,1.667,0,1,-30,0,1,1,1
6,"m4","Month 4","Negative",1,77,7,1.766,0,1,-30,0,1,1,1
6,"m4","Month 4","Negative",1,78,8,1.617,0,1,-30,0,1,1,1
6,"m4","Month 4","Negative",1,79,9,0.966,0,0,-30,0,1,1,1
6,"m4","Month 4","Negative",1,80,10,1.617,0,1,-30,0,1,1,1
6,"m4","Month 4","Negative",1,81,11,1.317,0,1,-30,0,1,1,1
6,"m4","Month 4","Negative",1,82,12,0.75,0,0,-30,1,1,1,1
6,"m4","Month 4","Negative",1,83,13,0.684,1,1,-30,0,0,0,1
6,"m4","Month 4","Negative",1,84,14,1.25,1,1,-30,0,0,0,1
6,"m4","Month 4","Negative",1,85,15,1.05,1,1,-30,0,0,0,1
6,"m4","Month 4","Negative",1,86,16,0.767,1,0,-30,0,0,0,1
6,"m4","Month 4","Negative",1,87,17,0.9,0,0,-30,0,1,0,0
6,"m4","Month 4","Negative",1,88,18,1.133,0,0,-30,0,1,0,0
6,"m4","Month 4","Negative",1,89,19,0.067,1,1,-30,0,0,0,1
6,"m4","Month 4","Negative",1,90,20,0.95,1,1,-30,0,0,0,1
6,"m4","Month 4","Negative",1,91,21,0.75,1,1,-30,0,0,0,1
6,"m4","Month 4","Negative",1,92,22,1.05,1,1,-30,0,0,0,1
6,"m4","Month 4","Negative",1,93,23,1.6,1,0,-30,0,0,0,1
6,"m4","Month 4","Negative",1,94,24,2,0,0,-30,1,1,0,0
6,"m4","Month 4","Negative",1,95,25,1.066,1,1,-30,0,0,1,0
6,"m4","Month 4","Negative",1,96,26,1.217,1,0,-30,0,0,1,0
6,"m4","Month 4","Negative",1,97,27,1.75,0,1,-30,0,1,1,1
6,"m4","Month 4","Negative",1,98,28,1.45,1,0,-30,0,0,1,0
6,"m4","Month 4","Negative",1,99,29,0.834,0,1,-30,0,1,1,1
6,"m4","Month 4","Negative",1,100,30,1.217,0,1,-30,0,1,1,1
6,"m4","Month 4","Negative",1,101,31,1.183,0,1,-30,0,1,1,1
6,"m4","Month 4","Negative",1,102,32,0.617,0,1,-30,0,1,1,1
6,"m4","Month 4","Negative",1,103,33,1.533,0,0,-30,0,1,1,1
6,"m4","Month 4","Negative",1,104,34,3.116,0,1,-30,0,1,1,1
6,"m4","Month 4","Negative",1,105,35,3.033,0,1,-30,0,1,1,1
6,"m6","Month 6","Mixed",3,1,1,2.949,1,1,370,0,0,0,1
6,"m6","Month 6","Mixed",3,2,2,1.2,1,1,370,0,0,0,1
6,"m6","Month 6","Mixed",3,3,3,1.2,1,1,370,0,0,0,1
6,"m6","Month 6","Mixed",3,4,4,1.233,1,1,370,0,0,0,1
6,"m6","Month 6","Mixed",3,5,5,0.933,1,1,370,0,0,0,1
6,"m6","Month 6","Mixed",3,6,6,1.183,1,1,370,0,0,0,1
6,"m6","Month 6","Mixed",3,7,7,1.3,1,1,370,0,0,0,1
6,"m6","Month 6","Mixed",3,8,8,0.717,1,1,370,0,0,0,1
6,"m6","Month 6","Mixed",3,9,9,0.901,1,1,370,0,0,0,1
6,"m6","Month 6","Mixed",3,10,10,1.034,1,0,370,0,0,0,1
6,"m6","Month 6","Mixed",3,11,11,0.817,1,1,370,0,0,0,1
6,"m6","Month 6","Mixed",3,12,12,0.667,1,0,370,1,0,0,1
6,"m6","Month 6","Mixed",3,13,13,0.568,0,1,370,0,1,1,1
6,"m6","Month 6","Mixed",3,14,14,0.234,0,1,370,0,1,1,1
6,"m6","Month 6","Mixed",3,15,15,0.35,0,1,370,0,1,1,1
6,"m6","Month 6","Mixed",3,16,16,1.167,0,1,370,0,1,1,1
6,"m6","Month 6","Mixed",3,17,17,1.117,0,1,370,0,1,1,1
6,"m6","Month 6","Mixed",3,18,18,0.984,0,0,370,0,1,1,1
6,"m6","Month 6","Mixed",3,19,19,1.366,1,0,370,0,0,1,0
6,"m6","Month 6","Mixed",3,20,20,1.233,0,1,370,0,1,1,1
6,"m6","Month 6","Mixed",3,21,21,0.85,0,1,370,0,1,1,1
6,"m6","Month 6","Mixed",3,22,22,2.35,0,1,370,0,1,1,1
6,"m6","Month 6","Mixed",3,23,23,1.818,0,0,370,0,1,1,1
6,"m6","Month 6","Mixed",3,24,24,2.034,1,1,370,1,0,1,0
6,"m6","Month 6","Mixed",3,25,25,1.416,1,1,370,0,0,0,1
6,"m6","Month 6","Mixed",3,26,26,1.116,1,1,370,0,0,0,1
6,"m6","Month 6","Mixed",3,27,27,0.9,1,1,370,0,0,0,1
6,"m6","Month 6","Mixed",3,28,28,0.567,1,1,370,0,0,0,1
6,"m6","Month 6","Mixed",3,29,29,0.333,1,1,370,0,0,0,1
6,"m6","Month 6","Mixed",3,30,30,0.583,1,1,370,0,0,0,1
6,"m6","Month 6","Mixed",3,31,31,0.216,1,0,370,0,0,0,1
6,"m6","Month 6","Mixed",3,32,32,1.85,0,0,370,0,1,0,0
6,"m6","Month 6","Mixed",3,33,33,0.666,0,0,370,0,1,0,0
6,"m6","Month 6","Mixed",3,34,34,0.933,1,1,370,0,0,0,1
6,"m6","Month 6","Mixed",3,35,35,0.733,1,1,370,0,0,0,1
6,"m6","Month 6","Positive",2,36,1,3.283,1,0,180,0,0,1,0
6,"m6","Month 6","Positive",2,37,2,0.05,0,1,180,0,1,1,1
6,"m6","Month 6","Positive",2,38,3,1.549,0,1,180,0,1,1,1
6,"m6","Month 6","Positive",2,39,4,0.383,0,0,180,0,1,1,1
6,"m6","Month 6","Positive",2,40,5,0.784,0,1,180,0,1,1,1
6,"m6","Month 6","Positive",2,41,6,0.366,0,1,180,0,1,1,1
6,"m6","Month 6","Positive",2,42,7,0.2,0,1,180,0,1,1,1
6,"m6","Month 6","Positive",2,43,8,0.249,0,1,180,0,1,1,1
6,"m6","Month 6","Positive",2,44,9,0.384,0,1,180,0,1,1,1
6,"m6","Month 6","Positive",2,45,10,0.216,0,0,180,0,1,1,1
6,"m6","Month 6","Positive",2,46,11,0.284,0,0,180,0,1,1,1
6,"m6","Month 6","Positive",2,47,12,0.767,0,1,180,1,1,1,1
6,"m6","Month 6","Positive",2,48,13,0.433,0,0,180,0,1,0,0
6,"m6","Month 6","Positive",2,49,14,0.083,1,1,180,0,0,0,1
6,"m6","Month 6","Positive",2,50,15,0.033,1,1,180,0,0,0,1
6,"m6","Month 6","Positive",2,51,16,0.95,1,1,180,0,0,0,1
6,"m6","Month 6","Positive",2,52,17,0.25,1,1,180,0,0,0,1
6,"m6","Month 6","Positive",2,53,18,0.334,1,1,180,0,0,0,1
6,"m6","Month 6","Positive",2,54,19,0.184,1,1,180,0,0,0,1
6,"m6","Month 6","Positive",2,55,20,1.834,1,0,180,0,0,0,1
6,"m6","Month 6","Positive",2,56,21,1.784,1,0,180,0,0,0,1
6,"m6","Month 6","Positive",2,57,22,0.251,1,1,180,0,0,0,1
6,"m6","Month 6","Positive",2,58,23,1.2,1,1,180,0,0,0,1
6,"m6","Month 6","Positive",2,59,24,1.468,1,1,180,1,0,0,1
6,"m6","Month 6","Positive",2,60,25,0.534,1,1,180,0,0,1,0
6,"m6","Month 6","Positive",2,61,26,0.267,1,0,180,0,0,1,0
6,"m6","Month 6","Positive",2,62,27,0.25,1,0,180,0,0,1,0
6,"m6","Month 6","Positive",2,63,28,0.067,1,0,180,0,0,1,0
6,"m6","Month 6","Positive",2,64,29,0.683,0,1,180,0,1,1,1
6,"m6","Month 6","Positive",2,65,30,0.45,0,1,180,0,1,1,1
6,"m6","Month 6","Positive",2,66,31,1.383,0,0,180,0,1,1,1
6,"m6","Month 6","Positive",2,67,32,0.183,0,1,180,0,1,1,1
6,"m6","Month 6","Positive",2,68,33,0.966,0,1,180,0,1,1,1
6,"m6","Month 6","Positive",2,69,34,0.366,0,1,180,0,1,1,1
6,"m6","Month 6","Positive",2,70,35,0.417,0,1,180,0,1,1,1
6,"m6","Month 6","Negative",1,71,1,6.318,1,1,-60,0,0,0,1
6,"m6","Month 6","Negative",1,72,2,0.016,0,0,-60,0,1,0,0
6,"m6","Month 6","Negative",1,73,3,0.85,1,1,-60,0,0,0,1
6,"m6","Month 6","Negative",1,74,4,0.717,1,1,-60,0,0,0,1
6,"m6","Month 6","Negative",1,75,5,0.234,1,0,-60,0,0,0,1
6,"m6","Month 6","Negative",1,76,6,0.55,1,1,-60,0,0,0,1
6,"m6","Month 6","Negative",1,77,7,0.117,1,1,-60,0,0,0,1
6,"m6","Month 6","Negative",1,78,8,0.783,1,1,-60,0,0,0,1
6,"m6","Month 6","Negative",1,79,9,0.183,1,0,-60,0,0,0,1
6,"m6","Month 6","Negative",1,80,10,1.3,0,1,-60,0,1,0,0
6,"m6","Month 6","Negative",1,81,11,0.05,0,0,-60,0,1,0,0
6,"m6","Month 6","Negative",1,82,12,0.617,1,1,-60,1,0,0,1
6,"m6","Month 6","Negative",1,83,13,0.083,1,0,-60,0,0,1,0
6,"m6","Month 6","Negative",1,84,14,0.433,1,1,-60,0,0,1,0
6,"m6","Month 6","Negative",1,85,15,0.168,1,0,-60,0,0,1,0
6,"m6","Month 6","Negative",1,86,16,0.186,0,0,-60,0,1,1,1
6,"m6","Month 6","Negative",1,87,17,0.283,1,0,-60,0,0,1,0
6,"m6","Month 6","Negative",1,88,18,1.382,1,1,-60,0,0,1,0
6,"m6","Month 6","Negative",1,89,19,0.816,1,0,-60,0,0,1,0
6,"m6","Month 6","Negative",1,90,20,1,0,0,-60,0,1,1,1
6,"m6","Month 6","Negative",1,91,21,1.603,1,0,-60,0,0,1,0
6,"m6","Month 6","Negative",1,92,22,1.315,1,0,-60,0,0,1,0
6,"m6","Month 6","Negative",1,93,23,0.466,0,1,-60,0,1,1,1
6,"m6","Month 6","Negative",1,94,24,0.65,0,0,-60,1,1,1,1
6,"m6","Month 6","Negative",1,95,25,0.567,0,0,-60,0,1,0,0
6,"m6","Month 6","Negative",1,96,26,0.517,1,1,-60,0,0,0,1
6,"m6","Month 6","Negative",1,97,27,0.567,1,1,-60,0,0,0,1
6,"m6","Month 6","Negative",1,98,28,0.166,1,1,-60,0,0,0,1
6,"m6","Month 6","Negative",1,99,29,0.684,1,1,-60,0,0,0,1
6,"m6","Month 6","Negative",1,100,30,0.85,1,1,-60,0,0,0,1
6,"m6","Month 6","Negative",1,101,31,0.617,1,0,-60,0,0,0,1
6,"m6","Month 6","Negative",1,102,32,0.9,1,1,-60,0,0,0,1
6,"m6","Month 6","Negative",1,103,33,1.4,1,1,-60,0,0,0,1
6,"m6","Month 6","Negative",1,104,34,1.184,1,0,-60,0,0,0,1
6,"m6","Month 6","Negative",1,105,35,1.684,1,1,-60,0,0,0,1
7,"fmri","fMRI","Mixed",3,1,1,0.446539999996126,0,1,440,0,1,1,1
7,"fmri","fMRI","Mixed",3,2,2,0.167160000000893,0,0,440,0,1,1,1
7,"fmri","fMRI","Mixed",3,3,3,0.594019999994336,1,0,440,0,0,1,0
7,"fmri","fMRI","Mixed",3,4,4,0.961970000007749,0,1,440,0,1,1,1
7,"fmri","fMRI","Mixed",3,5,5,0.412019999998805,0,1,440,0,1,1,1
7,"fmri","fMRI","Mixed",3,6,6,1.82471999999582,0,0,440,0,1,1,1
7,"fmri","fMRI","Mixed",3,7,7,0.148009999999402,1,0,440,0,0,1,0
7,"fmri","fMRI","Mixed",3,8,8,0.146970000001787,0,1,440,0,1,1,1
7,"fmri","fMRI","Mixed",3,9,9,0.561420000003281,0,1,440,0,1,1,1
7,"fmri","fMRI","Mixed",3,10,10,0.489509999997921,0,1,440,0,1,1,1
7,"fmri","fMRI","Mixed",3,11,11,1.37385000001787,0,0,440,0,1,1,1
7,"fmri","fMRI","Mixed",3,12,12,1.10730999998896,1,0,440,1,0,1,0
7,"fmri","fMRI","Mixed",3,13,13,0.44681000000238,0,0,440,0,1,0,0
7,"fmri","fMRI","Mixed",3,14,14,0.29611999999733,1,1,440,0,0,0,1
7,"fmri","fMRI","Mixed",3,15,15,0.719239999994613,1,1,440,0,0,0,1
7,"fmri","fMRI","Mixed",3,16,16,0.0840800000011939,1,1,440,0,0,0,1
7,"fmri","fMRI","Mixed",3,17,17,0.485089999997626,1,1,440,0,0,0,1
7,"fmri","fMRI","Mixed",3,18,18,0.487860000005369,1,1,440,0,0,0,1
7,"fmri","fMRI","Mixed",3,19,19,0.247250000000008,1,1,440,0,0,0,1
7,"fmri","fMRI","Mixed",3,20,20,0.72164999999849,1,1,440,0,0,0,1
7,"fmri","fMRI","Mixed",3,21,21,0.646279999995215,1,1,440,0,0,0,1
7,"fmri","fMRI","Mixed",3,22,22,0.562050000005954,1,1,440,0,0,0,1
7,"fmri","fMRI","Mixed",3,23,23,0.0837600000009076,1,1,440,0,0,0,1
7,"fmri","fMRI","Mixed",3,24,24,0.246429999998199,1,0,440,1,0,0,1
7,"fmri","fMRI","Mixed",3,25,25,0.51657000000327,0,0,440,0,1,1,1
7,"fmri","fMRI","Mixed",3,26,26,0.443800000001488,1,0,440,0,0,1,0
7,"fmri","fMRI","Mixed",3,27,27,0.14807000000178,0,1,440,0,1,1,1
7,"fmri","fMRI","Mixed",3,28,28,1.30795999998747,0,1,440,0,1,1,1
7,"fmri","fMRI","Mixed",3,29,29,0.866789999996143,0,1,440,0,1,1,1
7,"fmri","fMRI","Mixed",3,30,30,0.248150000001488,0,1,440,0,1,1,1
7,"fmri","fMRI","Mixed",3,31,31,0.248720000000304,0,1,440,0,1,1,1
7,"fmri","fMRI","Mixed",3,32,32,0.641659999994943,0,1,440,0,1,1,1
7,"fmri","fMRI","Mixed",3,33,33,0.726300000006034,0,1,440,0,1,1,1
7,"fmri","fMRI","Mixed",3,34,34,0.870009999994949,0,0,440,0,1,1,1
7,"fmri","fMRI","Mixed",3,35,35,0.74089999999407,1,1,440,0,0,1,0
7,"fmri","fMRI","Positive",2,36,1,1.06988000001162,0,0,310,0,1,0,0
7,"fmri","fMRI","Positive",2,37,2,0.88660000000298,1,1,310,0,0,0,1
7,"fmri","fMRI","Positive",2,38,3,0.0833800000011919,1,1,310,0,0,0,1
7,"fmri","fMRI","Positive",2,39,4,0.0844099999994015,1,0,310,0,0,0,1
7,"fmri","fMRI","Positive",2,40,5,0.666100000004469,0,1,310,0,1,0,0
7,"fmri","fMRI","Positive",2,41,6,0.410379999998209,0,0,310,0,1,0,0
7,"fmri","fMRI","Positive",2,42,7,0.520330000001188,1,1,310,0,0,0,1
7,"fmri","fMRI","Positive",2,43,8,0.409649999999999,1,1,310,0,0,0,1
7,"fmri","fMRI","Positive",2,44,9,0.0839400000005952,1,1,310,0,0,0,1
7,"fmri","fMRI","Positive",2,45,10,1.23193999999761,1,1,310,0,0,0,1
7,"fmri","fMRI","Positive",2,46,11,0.712189999994635,1,1,310,0,0,0,1
7,"fmri","fMRI","Positive",2,47,12,0.64005999999344,1,0,310,1,0,0,1
7,"fmri","fMRI","Positive",2,48,13,0.51896000000238,0,1,310,0,1,1,1
7,"fmri","fMRI","Positive",2,49,14,0.562280000001181,0,1,310,0,1,1,1
7,"fmri","fMRI","Positive",2,50,15,0.638990000000589,0,1,310,0,1,1,1
7,"fmri","fMRI","Positive",2,51,16,0.797139999999089,0,1,310,0,1,1,1
7,"fmri","fMRI","Positive",2,52,17,0.648130000004173,0,1,310,0,1,1,1
7,"fmri","fMRI","Positive",2,53,18,0.643139999993139,0,1,310,0,1,1,1
7,"fmri","fMRI","Positive",2,54,19,0.486539999996111,0,0,310,0,1,1,1
7,"fmri","fMRI","Positive",2,55,20,0.445539999999099,1,0,310,0,0,1,0
7,"fmri","fMRI","Positive",2,56,21,0.520029999998229,0,1,310,0,1,1,1
7,"fmri","fMRI","Positive",2,57,22,0.715779999999697,0,1,310,0,1,1,1
7,"fmri","fMRI","Positive",2,58,23,0.167079999999714,0,1,310,0,1,1,1
7,"fmri","fMRI","Positive",2,59,24,0.247919999998814,0,1,310,1,1,1,1
7,"fmri","fMRI","Positive",2,60,25,1.5257199999988,0,1,310,0,1,0,0
7,"fmri","fMRI","Positive",2,61,26,0.861800000010433,0,0,310,0,1,0,0
7,"fmri","fMRI","Positive",2,62,27,0.592560000003871,1,1,310,0,0,0,1
7,"fmri","fMRI","Positive",2,63,28,0.646820000003231,1,1,310,0,0,0,1
7,"fmri","fMRI","Positive",2,64,29,0.564009999997978,1,1,310,0,0,0,1
7,"fmri","fMRI","Positive",2,65,30,0.167019999998786,1,1,310,0,0,0,1
7,"fmri","fMRI","Positive",2,66,31,0.563550000000021,1,1,310,0,0,0,1
7,"fmri","fMRI","Positive",2,67,32,0.713490000005066,1,1,310,0,0,0,1
7,"fmri","fMRI","Positive",2,68,33,0.250370000001794,1,1,310,0,0,0,1
7,"fmri","fMRI","Positive",2,69,34,1.30171999998242,1,1,310,0,0,0,1
7,"fmri","fMRI","Positive",2,70,35,0.644120000003284,1,1,310,0,0,0,1
7,"fmri","fMRI","Negative",1,71,1,0.599390000005073,0,1,30,0,1,1,1
7,"fmri","fMRI","Negative",1,72,2,1.62267000000028,1,0,30,0,0,1,0
7,"fmri","fMRI","Negative",1,73,3,0.962510000011335,0,1,30,0,1,1,1
7,"fmri","fMRI","Negative",1,74,4,0.493650000001495,0,1,30,0,1,1,1
7,"fmri","fMRI","Negative",1,75,5,0.331060000003873,0,1,30,0,1,1,1
7,"fmri","fMRI","Negative",1,76,6,0.722459999997895,0,1,30,0,1,1,1
7,"fmri","fMRI","Negative",1,77,7,0.488800000005966,0,1,30,0,1,1,1
7,"fmri","fMRI","Negative",1,78,8,1.67024999999556,0,1,30,0,1,1,1
7,"fmri","fMRI","Negative",1,79,9,0.637509999999409,0,1,30,0,1,1,1
7,"fmri","fMRI","Negative",1,80,10,0.492009999996426,0,1,30,0,1,1,1
7,"fmri","fMRI","Negative",1,81,11,0.641519999997328,0,1,30,0,1,1,1
7,"fmri","fMRI","Negative",1,82,12,0.405979999998223,0,1,30,1,1,1,1
7,"fmri","fMRI","Negative",1,83,13,0.329660000002377,0,0,30,0,1,0,0
7,"fmri","fMRI","Negative",1,84,14,0.445319999991383,0,1,30,0,1,0,0
7,"fmri","fMRI","Negative",1,85,15,0.567129999995231,0,1,30,0,1,0,0
7,"fmri","fMRI","Negative",1,86,16,0.485520000007739,0,0,30,0,1,0,0
7,"fmri","fMRI","Negative",1,87,17,0.742529999987767,0,1,30,0,1,0,0
7,"fmri","fMRI","Negative",1,88,18,1.01444999998958,0,0,30,0,1,0,0
7,"fmri","fMRI","Negative",1,89,19,0.517529999998231,1,1,30,0,0,0,1
7,"fmri","fMRI","Negative",1,90,20,0.566869999998829,1,1,30,0,0,0,1
7,"fmri","fMRI","Negative",1,91,21,0.409720000000306,1,0,30,0,0,0,1
7,"fmri","fMRI","Negative",1,92,22,0.594129999998216,1,1,30,0,0,0,1
7,"fmri","fMRI","Negative",1,93,23,0.582040000002081,1,1,30,0,0,0,1
7,"fmri","fMRI","Negative",1,94,24,0.32900000000447,1,1,30,1,0,0,1
7,"fmri","fMRI","Negative",1,95,25,0.0838300000011714,1,1,30,0,0,1,0
7,"fmri","fMRI","Negative",1,96,26,0.248749999998495,1,0,30,0,0,1,0
7,"fmri","fMRI","Negative",1,97,27,0.372879999999697,1,0,30,0,0,1,0
7,"fmri","fMRI","Negative",1,98,28,1.25235000000598,0,1,30,0,1,1,1
7,"fmri","fMRI","Negative",1,99,29,0.788369999998793,0,1,30,0,1,1,1
7,"fmri","fMRI","Negative",1,100,30,0.647830000002671,0,1,30,0,1,1,1
7,"fmri","fMRI","Negative",1,101,31,0.645579999999711,0,1,30,0,1,1,1
7,"fmri","fMRI","Negative",1,102,32,0.24785,0,1,30,0,1,1,1
7,"fmri","fMRI","Negative",1,103,33,0.49012999999826,0,1,30,0,1,1,1
7,"fmri","fMRI","Negative",1,104,34,1.37764000000499,0,1,30,0,1,1,1
7,"fmri","fMRI","Negative",1,105,35,0.166789999999111,0,1,30,0,1,1,1
7,"pre_stim","Pre-Stim","Mixed",3,1,1,0.65,1,1,280,0,0,0,1
7,"pre_stim","Pre-Stim","Mixed",3,2,2,0.883,1,1,280,0,0,0,1
7,"pre_stim","Pre-Stim","Mixed",3,3,3,0.1,1,1,280,0,0,0,1
7,"pre_stim","Pre-Stim","Mixed",3,4,4,0.55,1,1,280,0,0,0,1
7,"pre_stim","Pre-Stim","Mixed",3,5,5,0.334,1,1,280,0,0,0,1
7,"pre_stim","Pre-Stim","Mixed",3,6,6,0.55,1,1,280,0,0,0,1
7,"pre_stim","Pre-Stim","Mixed",3,7,7,0.8,1,1,280,0,0,0,1
7,"pre_stim","Pre-Stim","Mixed",3,8,8,0.317,1,1,280,0,0,0,1
7,"pre_stim","Pre-Stim","Mixed",3,9,9,0.417,1,0,280,0,0,0,1
7,"pre_stim","Pre-Stim","Mixed",3,10,10,0.1,0,0,280,0,1,0,0
7,"pre_stim","Pre-Stim","Mixed",3,11,11,0.233,1,1,280,0,0,0,1
7,"pre_stim","Pre-Stim","Mixed",3,12,12,0.733,1,1,280,0,0,0,1
7,"pre_stim","Pre-Stim","Mixed",3,13,13,0.7,1,1,280,1,0,0,1
7,"pre_stim","Pre-Stim","Mixed",3,14,14,2.433,1,0,280,0,0,1,0
7,"pre_stim","Pre-Stim","Mixed",3,15,15,0.633,0,1,280,0,1,1,1
7,"pre_stim","Pre-Stim","Mixed",3,16,16,0.866,0,0,280,0,1,1,1
7,"pre_stim","Pre-Stim","Mixed",3,17,17,0.283,1,0,280,0,0,1,0
7,"pre_stim","Pre-Stim","Mixed",3,18,18,0.599,0,0,280,0,1,1,1
7,"pre_stim","Pre-Stim","Mixed",3,19,19,0.266,1,0,280,0,0,1,0
7,"pre_stim","Pre-Stim","Mixed",3,20,20,0.134,0,1,280,0,1,1,1
7,"pre_stim","Pre-Stim","Mixed",3,21,21,1.067,0,1,280,0,1,1,1
7,"pre_stim","Pre-Stim","Mixed",3,22,22,0.817,0,1,280,0,1,1,1
7,"pre_stim","Pre-Stim","Mixed",3,23,23,0.783,0,1,280,0,1,1,1
7,"pre_stim","Pre-Stim","Mixed",3,24,24,0.116,0,1,280,0,1,1,1
7,"pre_stim","Pre-Stim","Mixed",3,25,25,0.716,0,1,280,1,1,1,1
7,"pre_stim","Pre-Stim","Mixed",3,26,26,0.716,0,1,280,0,1,0,0
7,"pre_stim","Pre-Stim","Mixed",3,27,27,0.05,0,0,280,0,1,0,0
7,"pre_stim","Pre-Stim","Mixed",3,28,28,0.467,1,0,280,0,0,0,1
7,"pre_stim","Pre-Stim","Mixed",3,29,29,0.55,0,0,280,0,1,0,0
7,"pre_stim","Pre-Stim","Mixed",3,30,30,0.216,1,1,280,0,0,0,1
7,"pre_stim","Pre-Stim","Mixed",3,31,31,0.633,1,0,280,0,0,0,1
7,"pre_stim","Pre-Stim","Mixed",3,32,32,0.8,0,1,280,0,1,0,0
7,"pre_stim","Pre-Stim","Mixed",3,33,33,0.834,0,0,280,0,1,0,0
7,"pre_stim","Pre-Stim","Mixed",3,34,34,0.367,1,1,280,0,0,0,1
7,"pre_stim","Pre-Stim","Mixed",3,35,35,0.383,1,0,280,0,0,0,1
7,"pre_stim","Pre-Stim","Positive",1,36,1,0.833,1,1,330,0,0,0,1
7,"pre_stim","Pre-Stim","Positive",1,37,2,1.384,1,1,330,0,0,0,1
7,"pre_stim","Pre-Stim","Positive",1,38,3,0.833,1,1,330,0,0,0,1
7,"pre_stim","Pre-Stim","Positive",1,39,4,0.766,1,0,330,0,0,0,1
7,"pre_stim","Pre-Stim","Positive",1,40,5,0.027,0,0,330,0,1,0,0
7,"pre_stim","Pre-Stim","Positive",1,41,6,0.734,1,1,330,0,0,0,1
7,"pre_stim","Pre-Stim","Positive",1,42,7,0.85,1,1,330,0,0,0,1
7,"pre_stim","Pre-Stim","Positive",1,43,8,0.767,1,1,330,0,0,0,1
7,"pre_stim","Pre-Stim","Positive",1,44,9,1.25,1,1,330,0,0,0,1
7,"pre_stim","Pre-Stim","Positive",1,45,10,0.1,1,1,330,0,0,0,1
7,"pre_stim","Pre-Stim","Positive",1,46,11,0.817,1,1,330,0,0,0,1
7,"pre_stim","Pre-Stim","Positive",1,47,12,0.617,1,1,330,0,0,0,1
7,"pre_stim","Pre-Stim","Positive",1,48,13,0.55,1,1,330,1,0,0,1
7,"pre_stim","Pre-Stim","Positive",1,49,14,0.133,1,0,330,0,0,1,0
7,"pre_stim","Pre-Stim","Positive",1,50,15,0.8,0,0,330,0,1,1,1
7,"pre_stim","Pre-Stim","Positive",1,51,16,0.434,1,0,330,0,0,1,0
7,"pre_stim","Pre-Stim","Positive",1,52,17,0.533,0,1,330,0,1,1,1
7,"pre_stim","Pre-Stim","Positive",1,53,18,0.583,0,0,330,0,1,1,1
7,"pre_stim","Pre-Stim","Positive",1,54,19,0.483,1,0,330,0,0,1,0
7,"pre_stim","Pre-Stim","Positive",1,55,20,0.467,0,1,330,0,1,1,1
7,"pre_stim","Pre-Stim","Positive",1,56,21,0.8,0,1,330,0,1,1,1
7,"pre_stim","Pre-Stim","Positive",1,57,22,0.75,0,1,330,0,1,1,1
7,"pre_stim","Pre-Stim","Positive",1,58,23,0.567,0,1,330,0,1,1,1
7,"pre_stim","Pre-Stim","Positive",1,59,24,0.483,0,1,330,0,1,1,1
7,"pre_stim","Pre-Stim","Positive",1,60,25,0.083,0,1,330,1,1,1,1
7,"pre_stim","Pre-Stim","Positive",1,61,26,0.15,0,0,330,0,1,0,0
7,"pre_stim","Pre-Stim","Positive",1,62,27,0.534,1,1,330,0,0,0,1
7,"pre_stim","Pre-Stim","Positive",1,63,28,0.516,1,1,330,0,0,0,1
7,"pre_stim","Pre-Stim","Positive",1,64,29,0.283,1,0,330,0,0,0,1
7,"pre_stim","Pre-Stim","Positive",1,65,30,0.667,0,0,330,0,1,0,0
7,"pre_stim","Pre-Stim","Positive",1,66,31,0.267,1,1,330,0,0,0,1
7,"pre_stim","Pre-Stim","Positive",1,67,32,6.3,1,0,330,0,0,0,1
7,"pre_stim","Pre-Stim","Positive",1,68,33,0.1,0,1,330,0,1,0,0
7,"pre_stim","Pre-Stim","Positive",1,69,34,0.817,0,1,330,0,1,0,0
7,"pre_stim","Pre-Stim","Positive",1,70,35,0.6,0,0,330,0,1,0,0
7,"pre_stim","Pre-Stim","Negative",2,71,1,0.866,1,1,190,0,0,1,0
7,"pre_stim","Pre-Stim","Negative",2,72,2,0.05,1,0,190,0,0,1,0
7,"pre_stim","Pre-Stim","Negative",2,73,3,0.233,0,0,190,0,1,1,1
7,"pre_stim","Pre-Stim","Negative",2,74,4,0.534,1,0,190,0,0,1,0
7,"pre_stim","Pre-Stim","Negative",2,75,5,0.35,0,1,190,0,1,1,1
7,"pre_stim","Pre-Stim","Negative",2,76,6,0.784,0,1,190,0,1,1,1
7,"pre_stim","Pre-Stim","Negative",2,77,7,0.027,0,1,190,0,1,1,1
7,"pre_stim","Pre-Stim","Negative",2,78,8,0.317,0,1,190,0,1,1,1
7,"pre_stim","Pre-Stim","Negative",2,79,9,0.65,0,1,190,0,1,1,1
7,"pre_stim","Pre-Stim","Negative",2,80,10,0.933,0,1,190,0,1,1,1
7,"pre_stim","Pre-Stim","Negative",2,81,11,0.334,0,0,190,0,1,1,1
7,"pre_stim","Pre-Stim","Negative",2,82,12,0.367,1,0,190,0,0,1,0
7,"pre_stim","Pre-Stim","Negative",2,83,13,0.666,0,0,190,1,1,1,1
7,"pre_stim","Pre-Stim","Negative",2,84,14,0.4,1,1,190,0,0,0,1
7,"pre_stim","Pre-Stim","Negative",2,85,15,1.066,1,0,190,0,0,0,1
7,"pre_stim","Pre-Stim","Negative",2,86,16,0.583,0,0,190,0,1,0,0
7,"pre_stim","Pre-Stim","Negative",2,87,17,0.233,1,0,190,0,0,0,1
7,"pre_stim","Pre-Stim","Negative",2,88,18,0.166,0,0,190,0,1,0,0
7,"pre_stim","Pre-Stim","Negative",2,89,19,0.484,1,1,190,0,0,0,1
7,"pre_stim","Pre-Stim","Negative",2,90,20,1.667,1,1,190,0,0,0,1
7,"pre_stim","Pre-Stim","Negative",2,91,21,0.566,1,1,190,0,0,0,1
7,"pre_stim","Pre-Stim","Negative",2,92,22,0.55,1,0,190,0,0,0,1
7,"pre_stim","Pre-Stim","Negative",2,93,23,0.15,0,0,190,0,1,0,0
7,"pre_stim","Pre-Stim","Negative",2,94,24,0.3,1,1,190,0,0,0,1
7,"pre_stim","Pre-Stim","Negative",2,95,25,0.5,1,0,190,1,0,0,1
7,"pre_stim","Pre-Stim","Negative",2,96,26,0.267,0,1,190,0,1,1,1
7,"pre_stim","Pre-Stim","Negative",2,97,27,0.133,0,1,190,0,1,1,1
7,"pre_stim","Pre-Stim","Negative",2,98,28,1.867,0,1,190,0,1,1,1
7,"pre_stim","Pre-Stim","Negative",2,99,29,0.084,0,1,190,0,1,1,1
7,"pre_stim","Pre-Stim","Negative",2,100,30,0.15,0,1,190,0,1,1,1
7,"pre_stim","Pre-Stim","Negative",2,101,31,0.783,0,1,190,0,1,1,1
7,"pre_stim","Pre-Stim","Negative",2,102,32,0.15,0,1,190,0,1,1,1
7,"pre_stim","Pre-Stim","Negative",2,103,33,0.333,0,1,190,0,1,1,1
7,"pre_stim","Pre-Stim","Negative",2,104,34,0.167,0,1,190,0,1,1,1
7,"pre_stim","Pre-Stim","Negative",2,105,35,0.766,0,0,190,0,1,1,1
7,"post_stim","Post-Stim","Mixed",3,1,1,0.717,1,1,350,0,0,0,1
7,"post_stim","Post-Stim","Mixed",3,2,2,1.967,1,1,350,0,0,0,1
7,"post_stim","Post-Stim","Mixed",3,3,3,0.55,1,1,350,0,0,0,1
7,"post_stim","Post-Stim","Mixed",3,4,4,0.667,1,1,350,0,0,0,1
7,"post_stim","Post-Stim","Mixed",3,5,5,0.733,1,1,350,0,0,0,1
7,"post_stim","Post-Stim","Mixed",3,6,6,0.5,1,1,350,0,0,0,1
7,"post_stim","Post-Stim","Mixed",3,7,7,1.1,1,1,350,0,0,0,1
7,"post_stim","Post-Stim","Mixed",3,8,8,0.567,1,1,350,0,0,0,1
7,"post_stim","Post-Stim","Mixed",3,9,9,0.15,1,1,350,0,0,0,1
7,"post_stim","Post-Stim","Mixed",3,10,10,0.484,1,1,350,0,0,0,1
7,"post_stim","Post-Stim","Mixed",3,11,11,0.267,1,0,350,0,0,0,1
7,"post_stim","Post-Stim","Mixed",3,12,12,0.55,0,0,350,1,1,0,0
7,"post_stim","Post-Stim","Mixed",3,13,13,0.117,1,0,350,0,0,1,0
7,"post_stim","Post-Stim","Mixed",3,14,14,0.25,0,1,350,0,1,1,1
7,"post_stim","Post-Stim","Mixed",3,15,15,0.95,0,1,350,0,1,1,1
7,"post_stim","Post-Stim","Mixed",3,16,16,0.584,0,0,350,0,1,1,1
7,"post_stim","Post-Stim","Mixed",3,17,17,0.533,1,1,350,0,0,1,0
7,"post_stim","Post-Stim","Mixed",3,18,18,0.317,1,1,350,0,0,1,0
7,"post_stim","Post-Stim","Mixed",3,19,19,0.567,1,0,350,0,0,1,0
7,"post_stim","Post-Stim","Mixed",3,20,20,0.567,0,1,350,0,1,1,1
7,"post_stim","Post-Stim","Mixed",3,21,21,0.783,0,0,350,0,1,1,1
7,"post_stim","Post-Stim","Mixed",3,22,22,0.416,1,0,350,0,0,1,0
7,"post_stim","Post-Stim","Mixed",3,23,23,0.533,0,1,350,0,1,1,1
7,"post_stim","Post-Stim","Mixed",3,24,24,0.217,0,1,350,1,1,1,1
7,"post_stim","Post-Stim","Mixed",3,25,25,0.083,0,0,350,0,1,0,0
7,"post_stim","Post-Stim","Mixed",3,26,26,0.45,1,1,350,0,0,0,1
7,"post_stim","Post-Stim","Mixed",3,27,27,0.95,1,1,350,0,0,0,1
7,"post_stim","Post-Stim","Mixed",3,28,28,0.383,1,1,350,0,0,0,1
7,"post_stim","Post-Stim","Mixed",3,29,29,0.25,1,1,350,0,0,0,1
7,"post_stim","Post-Stim","Mixed",3,30,30,0.117,1,0,350,0,0,0,1
7,"post_stim","Post-Stim","Mixed",3,31,31,0.484,0,0,350,0,1,0,0
7,"post_stim","Post-Stim","Mixed",3,32,32,0.483,1,1,350,0,0,0,1
7,"post_stim","Post-Stim","Mixed",3,33,33,0.534,1,0,350,0,0,0,1
7,"post_stim","Post-Stim","Mixed",3,34,34,0.433,0,1,350,0,1,0,0
7,"post_stim","Post-Stim","Mixed",3,35,35,0.533,0,1,350,0,1,0,0
7,"post_stim","Post-Stim","Positive",2,36,1,1.217,1,0,220,0,0,1,0
7,"post_stim","Post-Stim","Positive",2,37,2,0.317,0,1,220,0,1,1,1
7,"post_stim","Post-Stim","Positive",2,38,3,0.883,0,1,220,0,1,1,1
7,"post_stim","Post-Stim","Positive",2,39,4,0.767,0,1,220,0,1,1,1
7,"post_stim","Post-Stim","Positive",2,40,5,0.884,0,0,220,0,1,1,1
7,"post_stim","Post-Stim","Positive",2,41,6,0.233,1,0,220,0,0,1,0
7,"post_stim","Post-Stim","Positive",2,42,7,0.3,0,1,220,0,1,1,1
7,"post_stim","Post-Stim","Positive",2,43,8,1.366,0,1,220,0,1,1,1
7,"post_stim","Post-Stim","Positive",2,44,9,0.1,0,1,220,0,1,1,1
7,"post_stim","Post-Stim","Positive",2,45,10,0.25,0,1,220,0,1,1,1
7,"post_stim","Post-Stim","Positive",2,46,11,1.833,0,1,220,0,1,1,1
7,"post_stim","Post-Stim","Positive",2,47,12,0.917,0,1,220,1,1,1,1
7,"post_stim","Post-Stim","Positive",2,48,13,2.284,0,1,220,0,1,0,0
7,"post_stim","Post-Stim","Positive",2,49,14,0.416,0,0,220,0,1,0,0
7,"post_stim","Post-Stim","Positive",2,50,15,0.633,1,1,220,0,0,0,1
7,"post_stim","Post-Stim","Positive",2,51,16,0.667,1,1,220,0,0,0,1
7,"post_stim","Post-Stim","Positive",2,52,17,0.666,1,1,220,0,0,0,1
7,"post_stim","Post-Stim","Positive",2,53,18,1.366,1,1,220,0,0,0,1
7,"post_stim","Post-Stim","Positive",2,54,19,0.1,1,1,220,0,0,0,1
7,"post_stim","Post-Stim","Positive",2,55,20,0.3,1,1,220,0,0,0,1
7,"post_stim","Post-Stim","Positive",2,56,21,0.5,1,1,220,0,0,0,1
7,"post_stim","Post-Stim","Positive",2,57,22,0.583,1,0,220,0,0,0,1
7,"post_stim","Post-Stim","Positive",2,58,23,0.066,0,0,220,0,1,0,0
7,"post_stim","Post-Stim","Positive",2,59,24,0.249,1,1,220,1,0,0,1
7,"post_stim","Post-Stim","Positive",2,60,25,0.617,1,0,220,0,0,1,0
7,"post_stim","Post-Stim","Positive",2,61,26,0.117,0,1,220,0,1,1,1
7,"post_stim","Post-Stim","Positive",2,62,27,0.027,0,0,220,0,1,1,1
7,"post_stim","Post-Stim","Positive",2,63,28,0.583,1,0,220,0,0,1,0
7,"post_stim","Post-Stim","Positive",2,64,29,0.117,0,1,220,0,1,1,1
7,"post_stim","Post-Stim","Positive",2,65,30,0.583,0,0,220,0,1,1,1
7,"post_stim","Post-Stim","Positive",2,66,31,0.633,1,0,220,0,0,1,0
7,"post_stim","Post-Stim","Positive",2,67,32,0.384,0,1,220,0,1,1,1
7,"post_stim","Post-Stim","Positive",2,68,33,0.466,0,1,220,0,1,1,1
7,"post_stim","Post-Stim","Positive",2,69,34,0.633,0,0,220,0,1,1,1
7,"post_stim","Post-Stim","Positive",2,70,35,0.684,1,0,220,0,0,1,0
7,"post_stim","Post-Stim","Negative",1,71,1,0.75,1,1,0,0,0,0,1
7,"post_stim","Post-Stim","Negative",1,72,2,0.783,1,1,0,0,0,0,1
7,"post_stim","Post-Stim","Negative",1,73,3,0.416,1,1,0,0,0,0,1
7,"post_stim","Post-Stim","Negative",1,74,4,0.25,1,1,0,0,0,0,1
7,"post_stim","Post-Stim","Negative",1,75,5,0.683,1,1,0,0,0,0,1
7,"post_stim","Post-Stim","Negative",1,76,6,0.233,1,1,0,0,0,0,1
7,"post_stim","Post-Stim","Negative",1,77,7,1.966,1,1,0,0,0,0,1
7,"post_stim","Post-Stim","Negative",1,78,8,0.316,1,0,0,0,0,0,1
7,"post_stim","Post-Stim","Negative",1,79,9,1.283,0,0,0,0,1,0,0
7,"post_stim","Post-Stim","Negative",1,80,10,0.45,1,1,0,0,0,0,1
7,"post_stim","Post-Stim","Negative",1,81,11,0.85,1,1,0,0,0,0,1
7,"post_stim","Post-Stim","Negative",1,82,12,0.634,1,1,0,1,0,0,1
7,"post_stim","Post-Stim","Negative",1,83,13,0.65,1,0,0,0,0,1,0
7,"post_stim","Post-Stim","Negative",1,84,14,0.3,0,1,0,0,1,1,1
7,"post_stim","Post-Stim","Negative",1,85,15,1.084,0,0,0,0,1,1,1
7,"post_stim","Post-Stim","Negative",1,86,16,0.633,1,0,0,0,0,1,0
7,"post_stim","Post-Stim","Negative",1,87,17,0.716,0,1,0,0,1,1,1
7,"post_stim","Post-Stim","Negative",1,88,18,1.249,0,1,0,0,1,1,1
7,"post_stim","Post-Stim","Negative",1,89,19,0.6,0,0,0,0,1,1,1
7,"post_stim","Post-Stim","Negative",1,90,20,0.7,1,1,0,0,0,1,0
7,"post_stim","Post-Stim","Negative",1,91,21,0.183,1,0,0,0,0,1,0
7,"post_stim","Post-Stim","Negative",1,92,22,0.45,0,1,0,0,1,1,1
7,"post_stim","Post-Stim","Negative",1,93,23,0.1,0,1,0,0,1,1,1
7,"post_stim","Post-Stim","Negative",1,94,24,0.617,0,0,0,1,1,1,1
7,"post_stim","Post-Stim","Negative",1,95,25,0.028,1,1,0,0,0,0,1
7,"post_stim","Post-Stim","Negative",1,96,26,0.667,1,1,0,0,0,0,1
7,"post_stim","Post-Stim","Negative",1,97,27,0.734,1,1,0,0,0,0,1
7,"post_stim","Post-Stim","Negative",1,98,28,0.283,1,1,0,0,0,0,1
7,"post_stim","Post-Stim","Negative",1,99,29,1.05,1,1,0,0,0,0,1
7,"post_stim","Post-Stim","Negative",1,100,30,0.6,1,0,0,0,0,0,1
7,"post_stim","Post-Stim","Negative",1,101,31,0.067,0,1,0,0,1,0,0
7,"post_stim","Post-Stim","Negative",1,102,32,0.75,0,1,0,0,1,0,0
7,"post_stim","Post-Stim","Negative",1,103,33,0.867,0,1,0,0,1,0,0
7,"post_stim","Post-Stim","Negative",1,104,34,0.667,0,0,0,0,1,0,0
7,"post_stim","Post-Stim","Negative",1,105,35,0.8,1,1,0,0,0,0,1
7,"1w","Week 1","Mixed",1,1,1,0.499,0,0,270,0,1,0,0
7,"1w","Week 1","Mixed",1,2,2,0.517,1,1,270,0,0,0,1
7,"1w","Week 1","Mixed",1,3,3,0.549,1,1,270,0,0,0,1
7,"1w","Week 1","Mixed",1,4,4,0.517,1,1,270,0,0,0,1
7,"1w","Week 1","Mixed",1,5,5,0.25,1,1,270,0,0,0,1
7,"1w","Week 1","Mixed",1,6,6,0.1,1,1,270,0,0,0,1
7,"1w","Week 1","Mixed",1,7,7,0.35,1,1,270,0,0,0,1
7,"1w","Week 1","Mixed",1,8,8,0.4,1,0,270,0,0,0,1
7,"1w","Week 1","Mixed",1,9,9,0.434,1,1,270,0,0,0,1
7,"1w","Week 1","Mixed",1,10,10,0.416,1,1,270,0,0,0,1
7,"1w","Week 1","Mixed",1,11,11,0.484,1,1,270,0,0,0,1
7,"1w","Week 1","Mixed",1,12,12,0.3,1,1,270,0,0,0,1
7,"1w","Week 1","Mixed",1,13,13,0.416,1,1,270,1,0,0,1
7,"1w","Week 1","Mixed",1,14,14,0.484,1,0,270,0,0,1,0
7,"1w","Week 1","Mixed",1,15,15,0.85,1,0,270,0,0,1,0
7,"1w","Week 1","Mixed",1,16,16,0.766,1,0,270,0,0,1,0
7,"1w","Week 1","Mixed",1,17,17,0.55,0,1,270,0,1,1,1
7,"1w","Week 1","Mixed",1,18,18,0.434,0,1,270,0,1,1,1
7,"1w","Week 1","Mixed",1,19,19,0.366,0,1,270,0,1,1,1
7,"1w","Week 1","Mixed",1,20,20,0.4,0,1,270,0,1,1,1
7,"1w","Week 1","Mixed",1,21,21,0.084,0,0,270,0,1,1,1
7,"1w","Week 1","Mixed",1,22,22,0.367,0,1,270,0,1,1,1
7,"1w","Week 1","Mixed",1,23,23,0.026,0,1,270,0,1,1,1
7,"1w","Week 1","Mixed",1,24,24,0.05,0,1,270,0,1,1,1
7,"1w","Week 1","Mixed",1,25,25,0.717,0,1,270,1,1,1,1
7,"1w","Week 1","Mixed",1,26,26,0.266,0,0,270,0,1,0,0
7,"1w","Week 1","Mixed",1,27,27,0.449,0,0,270,0,1,0,0
7,"1w","Week 1","Mixed",1,28,28,0.283,1,1,270,0,0,0,1
7,"1w","Week 1","Mixed",1,29,29,0.4,1,1,270,0,0,0,1
7,"1w","Week 1","Mixed",1,30,30,0.4,1,1,270,0,0,0,1
7,"1w","Week 1","Mixed",1,31,31,0.25,1,1,270,0,0,0,1
7,"1w","Week 1","Mixed",1,32,32,0.533,1,1,270,0,0,0,1
7,"1w","Week 1","Mixed",1,33,33,0.483,1,1,270,0,0,0,1
7,"1w","Week 1","Mixed",1,34,34,0.183,1,0,270,0,0,0,1
7,"1w","Week 1","Mixed",1,35,35,0.5,1,1,270,0,0,0,1
7,"1w","Week 1","Positive",3,36,1,0.55,0,1,390,0,1,0,0
7,"1w","Week 1","Positive",3,37,2,0.116,0,0,390,0,1,0,0
7,"1w","Week 1","Positive",3,38,3,0.467,0,1,390,0,1,0,0
7,"1w","Week 1","Positive",3,39,4,0.45,0,0,390,0,1,0,0
7,"1w","Week 1","Positive",3,40,5,0.133,0,0,390,0,1,0,0
7,"1w","Week 1","Positive",3,41,6,0.417,1,1,390,0,0,0,1
7,"1w","Week 1","Positive",3,42,7,0.034,1,1,390,0,0,0,1
7,"1w","Week 1","Positive",3,43,8,0.466,1,1,390,0,0,0,1
7,"1w","Week 1","Positive",3,44,9,0.568,1,1,390,0,0,0,1
7,"1w","Week 1","Positive",3,45,10,0.65,1,1,390,0,0,0,1
7,"1w","Week 1","Positive",3,46,11,0.067,1,1,390,0,0,0,1
7,"1w","Week 1","Positive",3,47,12,0.184,1,1,390,0,0,0,1
7,"1w","Week 1","Positive",3,48,13,0.733,1,0,390,1,0,0,1
7,"1w","Week 1","Positive",3,49,14,0.15,1,1,390,0,0,1,0
7,"1w","Week 1","Positive",3,50,15,0.183,1,0,390,0,0,1,0
7,"1w","Week 1","Positive",3,51,16,0.401,1,0,390,0,0,1,0
7,"1w","Week 1","Positive",3,52,17,0.383,0,1,390,0,1,1,1
7,"1w","Week 1","Positive",3,53,18,0.4,0,1,390,0,1,1,1
7,"1w","Week 1","Positive",3,54,19,0.45,0,1,390,0,1,1,1
7,"1w","Week 1","Positive",3,55,20,0.383,0,1,390,0,1,1,1
7,"1w","Week 1","Positive",3,56,21,0.301,0,1,390,0,1,1,1
7,"1w","Week 1","Positive",3,57,22,0.417,0,1,390,0,1,1,1
7,"1w","Week 1","Positive",3,58,23,0.301,0,1,390,0,1,1,1
7,"1w","Week 1","Positive",3,59,24,0.333,0,1,390,0,1,1,1
7,"1w","Week 1","Positive",3,60,25,0.233,0,0,390,1,1,1,1
7,"1w","Week 1","Positive",3,61,26,0.467,0,0,390,0,1,0,0
7,"1w","Week 1","Positive",3,62,27,0.023,1,0,390,0,0,0,1
7,"1w","Week 1","Positive",3,63,28,0.167,1,1,390,0,0,0,1
7,"1w","Week 1","Positive",3,64,29,0.383,1,1,390,0,0,0,1
7,"1w","Week 1","Positive",3,65,30,0.6,1,1,390,0,0,0,1
7,"1w","Week 1","Positive",3,66,31,0.316,1,1,390,0,0,0,1
7,"1w","Week 1","Positive",3,67,32,0.516,1,1,390,0,0,0,1
7,"1w","Week 1","Positive",3,68,33,0.5,1,1,390,0,0,0,1
7,"1w","Week 1","Positive",3,69,34,0.467,1,0,390,0,0,0,1
7,"1w","Week 1","Positive",3,70,35,0.434,1,1,390,0,0,0,1
7,"1w","Week 1","Negative",2,71,1,0.75,0,0,140,0,1,1,1
7,"1w","Week 1","Negative",2,72,2,0.433,1,1,140,0,0,1,0
7,"1w","Week 1","Negative",2,73,3,0.45,1,0,140,0,0,1,0
7,"1w","Week 1","Negative",2,74,4,0.317,1,0,140,0,0,1,0
7,"1w","Week 1","Negative",2,75,5,0.267,0,1,140,0,1,1,1
7,"1w","Week 1","Negative",2,76,6,0.367,0,1,140,0,1,1,1
7,"1w","Week 1","Negative",2,77,7,0.3,0,1,140,0,1,1,1
7,"1w","Week 1","Negative",2,78,8,0.517,0,0,140,0,1,1,1
7,"1w","Week 1","Negative",2,79,9,0.4,0,1,140,0,1,1,1
7,"1w","Week 1","Negative",2,80,10,0.05,0,1,140,0,1,1,1
7,"1w","Week 1","Negative",2,81,11,0.517,0,0,140,0,1,1,1
7,"1w","Week 1","Negative",2,82,12,0.483,0,1,140,0,1,1,1
7,"1w","Week 1","Negative",2,83,13,0.533,0,1,140,1,1,1,1
7,"1w","Week 1","Negative",2,84,14,0.434,0,0,140,0,1,0,0
7,"1w","Week 1","Negative",2,85,15,0.25,0,1,140,0,1,0,0
7,"1w","Week 1","Negative",2,86,16,0.217,0,1,140,0,1,0,0
7,"1w","Week 1","Negative",2,87,17,0.467,0,1,140,0,1,0,0
7,"1w","Week 1","Negative",2,88,18,0.533,0,0,140,0,1,0,0
7,"1w","Week 1","Negative",2,89,19,0.15,0,0,140,0,1,0,0
7,"1w","Week 1","Negative",2,90,20,0.501,1,1,140,0,0,0,1
7,"1w","Week 1","Negative",2,91,21,0.333,1,1,140,0,0,0,1
7,"1w","Week 1","Negative",2,92,22,0.117,1,1,140,0,0,0,1
7,"1w","Week 1","Negative",2,93,23,0.084,1,0,140,0,0,0,1
7,"1w","Week 1","Negative",2,94,24,0.55,1,0,140,0,0,0,1
7,"1w","Week 1","Negative",2,95,25,0.35,0,0,140,1,1,0,0
7,"1w","Week 1","Negative",2,96,26,0.451,0,1,140,0,1,1,1
7,"1w","Week 1","Negative",2,97,27,0.15,0,1,140,0,1,1,1
7,"1w","Week 1","Negative",2,98,28,0.483,0,1,140,0,1,1,1
7,"1w","Week 1","Negative",2,99,29,0.5,0,1,140,0,1,1,1
7,"1w","Week 1","Negative",2,100,30,0.383,0,0,140,0,1,1,1
7,"1w","Week 1","Negative",2,101,31,0.134,0,1,140,0,1,1,1
7,"1w","Week 1","Negative",2,102,32,0.483,0,0,140,0,1,1,1
7,"1w","Week 1","Negative",2,103,33,0.75,0,1,140,0,1,1,1
7,"1w","Week 1","Negative",2,104,34,0.5,0,1,140,0,1,1,1
7,"1w","Week 1","Negative",2,105,35,0.467,0,1,140,0,1,1,1
7,"m1","Month 1","Mixed",1,1,1,1.016,1,1,230,0,0,1,0
7,"m1","Month 1","Mixed",1,2,2,0.55,1,1,230,0,0,1,0
7,"m1","Month 1","Mixed",1,3,3,0.433,1,1,230,0,0,1,0
7,"m1","Month 1","Mixed",1,4,4,0.8,1,0,230,0,0,1,0
7,"m1","Month 1","Mixed",1,5,5,0.534,0,1,230,0,1,1,1
7,"m1","Month 1","Mixed",1,6,6,0.283,0,1,230,0,1,1,1
7,"m1","Month 1","Mixed",1,7,7,0.367,0,1,230,0,1,1,1
7,"m1","Month 1","Mixed",1,8,8,0.35,0,0,230,0,1,1,1
7,"m1","Month 1","Mixed",1,9,9,0.416,1,0,230,0,0,1,0
7,"m1","Month 1","Mixed",1,10,10,0.366,0,0,230,0,1,1,1
7,"m1","Month 1","Mixed",1,11,11,0.367,1,0,230,0,0,1,0
7,"m1","Month 1","Mixed",1,12,12,0.402,1,0,230,1,0,1,0
7,"m1","Month 1","Mixed",1,13,13,0.251,0,0,230,0,1,0,0
7,"m1","Month 1","Mixed",1,14,14,0.583,0,0,230,0,1,0,0
7,"m1","Month 1","Mixed",1,15,15,0.316,1,1,230,0,0,0,1
7,"m1","Month 1","Mixed",1,16,16,0.416,1,1,230,0,0,0,1
7,"m1","Month 1","Mixed",1,17,17,0.367,1,1,230,0,0,0,1
7,"m1","Month 1","Mixed",1,18,18,0.367,1,1,230,0,0,0,1
7,"m1","Month 1","Mixed",1,19,19,0.35,1,1,230,0,0,0,1
7,"m1","Month 1","Mixed",1,20,20,0.216,1,1,230,0,0,0,1
7,"m1","Month 1","Mixed",1,21,21,0.483,1,1,230,0,0,0,1
7,"m1","Month 1","Mixed",1,22,22,0.617,1,1,230,0,0,0,1
7,"m1","Month 1","Mixed",1,23,23,0.4,1,1,230,0,0,0,1
7,"m1","Month 1","Mixed",1,24,24,0.416,1,1,230,1,0,0,1
7,"m1","Month 1","Mixed",1,25,25,0.3,1,0,230,0,0,1,0
7,"m1","Month 1","Mixed",1,26,26,0.417,1,0,230,0,0,1,0
7,"m1","Month 1","Mixed",1,27,27,0.483,0,1,230,0,1,1,1
7,"m1","Month 1","Mixed",1,28,28,0.434,0,1,230,0,1,1,1
7,"m1","Month 1","Mixed",1,29,29,0.183,0,0,230,0,1,1,1
7,"m1","Month 1","Mixed",1,30,30,0.384,0,1,230,0,1,1,1
7,"m1","Month 1","Mixed",1,31,31,0.15,0,1,230,0,1,1,1
7,"m1","Month 1","Mixed",1,32,32,0.517,0,1,230,0,1,1,1
7,"m1","Month 1","Mixed",1,33,33,0.35,0,1,230,0,1,1,1
7,"m1","Month 1","Mixed",1,34,34,0.267,0,1,230,0,1,1,1
7,"m1","Month 1","Mixed",1,35,35,0.4,0,1,230,0,1,1,1
7,"m1","Month 1","Positive",3,36,1,0.467,0,1,330,0,1,1,1
7,"m1","Month 1","Positive",3,37,2,0.983,0,1,330,0,1,1,1
7,"m1","Month 1","Positive",3,38,3,0.483,0,1,330,0,1,1,1
7,"m1","Month 1","Positive",3,39,4,0.15,0,0,330,0,1,1,1
7,"m1","Month 1","Positive",3,40,5,0.601,0,1,330,0,1,1,1
7,"m1","Month 1","Positive",3,41,6,0.434,0,0,330,0,1,1,1
7,"m1","Month 1","Positive",3,42,7,0.45,0,1,330,0,1,1,1
7,"m1","Month 1","Positive",3,43,8,0.252,0,0,330,0,1,1,1
7,"m1","Month 1","Positive",3,44,9,0.766,0,1,330,0,1,1,1
7,"m1","Month 1","Positive",3,45,10,0.417,0,1,330,0,1,1,1
7,"m1","Month 1","Positive",3,46,11,0.533,0,1,330,0,1,1,1
7,"m1","Month 1","Positive",3,47,12,0.467,0,1,330,1,1,1,1
7,"m1","Month 1","Positive",3,48,13,0.334,0,1,330,0,1,0,0
7,"m1","Month 1","Positive",3,49,14,0.167,0,0,330,0,1,0,0
7,"m1","Month 1","Positive",3,50,15,0.167,0,0,330,0,1,0,0
7,"m1","Month 1","Positive",3,51,16,0.25,0,1,330,0,1,0,0
7,"m1","Month 1","Positive",3,52,17,0.367,0,0,330,0,1,0,0
7,"m1","Month 1","Positive",3,53,18,0.233,0,0,330,0,1,0,0
7,"m1","Month 1","Positive",3,54,19,0.467,1,1,330,0,0,0,1
7,"m1","Month 1","Positive",3,55,20,0.167,1,1,330,0,0,0,1
7,"m1","Month 1","Positive",3,56,21,0.45,1,1,330,0,0,0,1
7,"m1","Month 1","Positive",3,57,22,0.5,1,1,330,0,0,0,1
7,"m1","Month 1","Positive",3,58,23,0.299,1,1,330,0,0,0,1
7,"m1","Month 1","Positive",3,59,24,0.466,1,1,330,1,0,0,1
7,"m1","Month 1","Positive",3,60,25,0.483,1,0,330,0,0,1,0
7,"m1","Month 1","Positive",3,61,26,0.65,1,1,330,0,0,1,0
7,"m1","Month 1","Positive",3,62,27,0.183,1,0,330,0,0,1,0
7,"m1","Month 1","Positive",3,63,28,0.233,1,0,330,0,0,1,0
7,"m1","Month 1","Positive",3,64,29,0.833,0,1,330,0,1,1,1
7,"m1","Month 1","Positive",3,65,30,0.45,0,1,330,0,1,1,1
7,"m1","Month 1","Positive",3,66,31,0.917,0,0,330,0,1,1,1
7,"m1","Month 1","Positive",3,67,32,0.4,0,1,330,0,1,1,1
7,"m1","Month 1","Positive",3,68,33,0.3,0,1,330,0,1,1,1
7,"m1","Month 1","Positive",3,69,34,0.617,0,1,330,0,1,1,1
7,"m1","Month 1","Positive",3,70,35,0.467,0,1,330,0,1,1,1
7,"m1","Month 1","Negative",2,71,1,1.033,0,0,90,0,1,0,0
7,"m1","Month 1","Negative",2,72,2,0.45,1,1,90,0,0,0,1
7,"m1","Month 1","Negative",2,73,3,0.217,1,1,90,0,0,0,1
7,"m1","Month 1","Negative",2,74,4,0.35,1,1,90,0,0,0,1
7,"m1","Month 1","Negative",2,75,5,0.417,1,0,90,0,0,0,1
7,"m1","Month 1","Negative",2,76,6,0.5,1,1,90,0,0,0,1
7,"m1","Month 1","Negative",2,77,7,0.183,1,1,90,0,0,0,1
7,"m1","Month 1","Negative",2,78,8,0.184,1,1,90,0,0,0,1
7,"m1","Month 1","Negative",2,79,9,0.467,1,0,90,0,0,0,1
7,"m1","Month 1","Negative",2,80,10,1.25,1,1,90,0,0,0,1
7,"m1","Month 1","Negative",2,81,11,0.367,1,1,90,0,0,0,1
7,"m1","Month 1","Negative",2,82,12,0.398,1,1,90,1,0,0,1
7,"m1","Month 1","Negative",2,83,13,0.333,1,0,90,0,0,1,0
7,"m1","Month 1","Negative",2,84,14,0.433,1,0,90,0,0,1,0
7,"m1","Month 1","Negative",2,85,15,0.9,0,1,90,0,1,1,1
7,"m1","Month 1","Negative",2,86,16,0.5,0,0,90,0,1,1,1
7,"m1","Month 1","Negative",2,87,17,0.467,0,1,90,0,1,1,1
7,"m1","Month 1","Negative",2,88,18,0.55,0,1,90,0,1,1,1
7,"m1","Month 1","Negative",2,89,19,0.45,0,1,90,0,1,1,1
7,"m1","Month 1","Negative",2,90,20,0.467,0,1,90,0,1,1,1
7,"m1","Month 1","Negative",2,91,21,0.466,0,0,90,0,1,1,1
7,"m1","Month 1","Negative",2,92,22,0.267,0,0,90,0,1,1,1
7,"m1","Month 1","Negative",2,93,23,0.133,1,0,90,0,0,1,0
7,"m1","Month 1","Negative",2,94,24,0.334,1,0,90,1,0,1,0
7,"m1","Month 1","Negative",2,95,25,0.251,0,0,90,0,1,0,0
7,"m1","Month 1","Negative",2,96,26,0.267,0,0,90,0,1,0,0
7,"m1","Month 1","Negative",2,97,27,0.634,1,0,90,0,0,0,1
7,"m1","Month 1","Negative",2,98,28,0.5,1,1,90,0,0,0,1
7,"m1","Month 1","Negative",2,99,29,0.283,1,1,90,0,0,0,1
7,"m1","Month 1","Negative",2,100,30,0.25,1,0,90,0,0,0,1
7,"m1","Month 1","Negative",2,101,31,0.133,1,1,90,0,0,0,1
7,"m1","Month 1","Negative",2,102,32,0.467,1,1,90,0,0,0,1
7,"m1","Month 1","Negative",2,103,33,0.384,1,1,90,0,0,0,1
7,"m1","Month 1","Negative",2,104,34,0.25,1,1,90,0,0,0,1
7,"m1","Month 1","Negative",2,105,35,0.1,1,1,90,0,0,0,1
7,"m2","Month 2","Mixed",1,1,1,0.617,1,1,190,0,0,0,1
7,"m2","Month 2","Mixed",1,2,2,0.434,1,1,190,0,0,0,1
7,"m2","Month 2","Mixed",1,3,3,0.417,1,1,190,0,0,0,1
7,"m2","Month 2","Mixed",1,4,4,0.384,1,1,190,0,0,0,1
7,"m2","Month 2","Mixed",1,5,5,0.8,1,1,190,0,0,0,1
7,"m2","Month 2","Mixed",1,6,6,0.35,1,1,190,0,0,0,1
7,"m2","Month 2","Mixed",1,7,7,0.3,1,1,190,0,0,0,1
7,"m2","Month 2","Mixed",1,8,8,0.034,1,0,190,0,0,0,1
7,"m2","Month 2","Mixed",1,9,9,0.367,0,0,190,0,1,0,0
7,"m2","Month 2","Mixed",1,10,10,0.416,0,0,190,0,1,0,0
7,"m2","Month 2","Mixed",1,11,11,0.55,1,1,190,0,0,0,1
7,"m2","Month 2","Mixed",1,12,12,0.467,1,1,190,0,0,0,1
7,"m2","Month 2","Mixed",1,13,13,0.432,1,1,190,1,0,0,1
7,"m2","Month 2","Mixed",1,14,14,0.4,1,0,190,0,0,1,0
7,"m2","Month 2","Mixed",1,15,15,0.4,1,1,190,0,0,1,0
7,"m2","Month 2","Mixed",1,16,16,0.184,1,0,190,0,0,1,0
7,"m2","Month 2","Mixed",1,17,17,0.05,1,1,190,0,0,1,0
7,"m2","Month 2","Mixed",1,18,18,0.024,1,0,190,0,0,1,0
7,"m2","Month 2","Mixed",1,19,19,0.45,0,1,190,0,1,1,1
7,"m2","Month 2","Mixed",1,20,20,0.384,0,1,190,0,1,1,1
7,"m2","Month 2","Mixed",1,21,21,0.433,0,0,190,0,1,1,1
7,"m2","Month 2","Mixed",1,22,22,0.067,0,0,190,0,1,1,1
7,"m2","Month 2","Mixed",1,23,23,0.366,1,0,190,0,0,1,0
7,"m2","Month 2","Mixed",1,24,24,0.233,1,1,190,0,0,1,0
7,"m2","Month 2","Mixed",1,25,25,0.433,1,0,190,1,0,1,0
7,"m2","Month 2","Mixed",1,26,26,0.817,0,0,190,0,1,0,0
7,"m2","Month 2","Mixed",1,27,27,0.833,0,0,190,0,1,0,0
7,"m2","Month 2","Mixed",1,28,28,0.116,1,1,190,0,0,0,1
7,"m2","Month 2","Mixed",1,29,29,0.166,1,1,190,0,0,0,1
7,"m2","Month 2","Mixed",1,30,30,0.384,1,1,190,0,0,0,1
7,"m2","Month 2","Mixed",1,31,31,0.183,1,1,190,0,0,0,1
7,"m2","Month 2","Mixed",1,32,32,0.217,1,1,190,0,0,0,1
7,"m2","Month 2","Mixed",1,33,33,0.45,1,1,190,0,0,0,1
7,"m2","Month 2","Mixed",1,34,34,0.417,1,0,190,0,0,0,1
7,"m2","Month 2","Mixed",1,35,35,0.116,1,1,190,0,0,0,1
7,"m2","Month 2","Positive",3,36,1,0.884,1,0,210,0,0,0,1
7,"m2","Month 2","Positive",3,37,2,0.317,0,0,210,0,1,0,0
7,"m2","Month 2","Positive",3,38,3,0.4,1,1,210,0,0,0,1
7,"m2","Month 2","Positive",3,39,4,0.366,1,0,210,0,0,0,1
7,"m2","Month 2","Positive",3,40,5,0.184,0,0,210,0,1,0,0
7,"m2","Month 2","Positive",3,41,6,0.05,1,0,210,0,0,0,1
7,"m2","Month 2","Positive",3,42,7,0.116,0,0,210,0,1,0,0
7,"m2","Month 2","Positive",3,43,8,0.35,1,1,210,0,0,0,1
7,"m2","Month 2","Positive",3,44,9,0.416,1,1,210,0,0,0,1
7,"m2","Month 2","Positive",3,45,10,0.5,1,0,210,0,0,0,1
7,"m2","Month 2","Positive",3,46,11,0.067,0,1,210,0,1,0,0
7,"m2","Month 2","Positive",3,47,12,0.4,0,0,210,0,1,0,0
7,"m2","Month 2","Positive",3,48,13,0.167,1,1,210,1,0,0,1
7,"m2","Month 2","Positive",3,49,14,0.466,1,0,210,0,0,1,0
7,"m2","Month 2","Positive",3,50,15,0.15,0,1,210,0,1,1,1
7,"m2","Month 2","Positive",3,51,16,0.384,0,0,210,0,1,1,1
7,"m2","Month 2","Positive",3,52,17,0.95,1,0,210,0,0,1,0
7,"m2","Month 2","Positive",3,53,18,0.417,0,1,210,0,1,1,1
7,"m2","Month 2","Positive",3,54,19,0.65,0,1,210,0,1,1,1
7,"m2","Month 2","Positive",3,55,20,0.5,0,1,210,0,1,1,1
7,"m2","Month 2","Positive",3,56,21,0.417,0,1,210,0,1,1,1
7,"m2","Month 2","Positive",3,57,22,0.567,0,0,210,0,1,1,1
7,"m2","Month 2","Positive",3,58,23,0.35,1,0,210,0,0,1,0
7,"m2","Month 2","Positive",3,59,24,0.466,0,1,210,0,1,1,1
7,"m2","Month 2","Positive",3,60,25,0.383,0,0,210,1,1,1,1
7,"m2","Month 2","Positive",3,61,26,0.517,1,1,210,0,0,0,1
7,"m2","Month 2","Positive",3,62,27,0.35,1,0,210,0,0,0,1
7,"m2","Month 2","Positive",3,63,28,0.517,0,0,210,0,1,0,0
7,"m2","Month 2","Positive",3,64,29,0.183,1,1,210,0,0,0,1
7,"m2","Month 2","Positive",3,65,30,0.6,1,1,210,0,0,0,1
7,"m2","Month 2","Positive",3,66,31,0.4,1,1,210,0,0,0,1
7,"m2","Month 2","Positive",3,67,32,0.383,1,1,210,0,0,0,1
7,"m2","Month 2","Positive",3,68,33,0.934,1,0,210,0,0,0,1
7,"m2","Month 2","Positive",3,69,34,0.217,0,0,210,0,1,0,0
7,"m2","Month 2","Positive",3,70,35,0.367,1,0,210,0,0,0,1
7,"m2","Month 2","Negative",2,71,1,1.717,0,1,50,0,1,1,1
7,"m2","Month 2","Negative",2,72,2,0.367,0,1,50,0,1,1,1
7,"m2","Month 2","Negative",2,73,3,0.3,0,1,50,0,1,1,1
7,"m2","Month 2","Negative",2,74,4,0.384,0,0,50,0,1,1,1
7,"m2","Month 2","Negative",2,75,5,0.383,0,1,50,0,1,1,1
7,"m2","Month 2","Negative",2,76,6,0.45,0,0,50,0,1,1,1
7,"m2","Month 2","Negative",2,77,7,0.201,0,1,50,0,1,1,1
7,"m2","Month 2","Negative",2,78,8,0.417,0,1,50,0,1,1,1
7,"m2","Month 2","Negative",2,79,9,0.35,0,0,50,0,1,1,1
7,"m2","Month 2","Negative",2,80,10,0.651,0,0,50,0,1,1,1
7,"m2","Month 2","Negative",2,81,11,0.383,1,0,50,0,0,1,0
7,"m2","Month 2","Negative",2,82,12,0.217,1,0,50,0,0,1,0
7,"m2","Month 2","Negative",2,83,13,0.367,0,1,50,1,1,1,1
7,"m2","Month 2","Negative",2,84,14,0.383,0,0,50,0,1,0,0
7,"m2","Month 2","Negative",2,85,15,0.384,0,0,50,0,1,0,0
7,"m2","Month 2","Negative",2,86,16,0.35,1,1,50,0,0,0,1
7,"m2","Month 2","Negative",2,87,17,0.334,1,1,50,0,0,0,1
7,"m2","Month 2","Negative",2,88,18,0.066,1,0,50,0,0,0,1
7,"m2","Month 2","Negative",2,89,19,0.417,1,1,50,0,0,0,1
7,"m2","Month 2","Negative",2,90,20,0.234,1,1,50,0,0,0,1
7,"m2","Month 2","Negative",2,91,21,0.417,1,1,50,0,0,0,1
7,"m2","Month 2","Negative",2,92,22,0.399,1,1,50,0,0,0,1
7,"m2","Month 2","Negative",2,93,23,0.449,1,1,50,0,0,0,1
7,"m2","Month 2","Negative",2,94,24,0.517,1,1,50,0,0,0,1
7,"m2","Month 2","Negative",2,95,25,0.25,1,1,50,1,0,0,1
7,"m2","Month 2","Negative",2,96,26,0.449,1,0,50,0,0,1,0
7,"m2","Month 2","Negative",2,97,27,0.55,1,0,50,0,0,1,0
7,"m2","Month 2","Negative",2,98,28,0.216,0,0,50,0,1,1,1
7,"m2","Month 2","Negative",2,99,29,0.183,0,1,50,0,1,1,1
7,"m2","Month 2","Negative",2,100,30,0.034,0,1,50,0,1,1,1
7,"m2","Month 2","Negative",2,101,31,0.283,0,1,50,0,1,1,1
7,"m2","Month 2","Negative",2,102,32,0.2,0,0,50,0,1,1,1
7,"m2","Month 2","Negative",2,103,33,0.266,0,1,50,0,1,1,1
7,"m2","Month 2","Negative",2,104,34,0.083,0,1,50,0,1,1,1
7,"m2","Month 2","Negative",2,105,35,0.233,0,0,50,0,1,1,1
7,"m3","Month 3","Mixed",1,1,1,0.534,1,1,150,0,0,0,1
7,"m3","Month 3","Mixed",1,2,2,0.334,1,1,150,0,0,0,1
7,"m3","Month 3","Mixed",1,3,3,0.084,1,0,150,0,0,0,1
7,"m3","Month 3","Mixed",1,4,4,0.483,1,0,150,0,0,0,1
7,"m3","Month 3","Mixed",1,5,5,0.183,0,1,150,0,1,0,0
7,"m3","Month 3","Mixed",1,6,6,0.316,0,0,150,0,1,0,0
7,"m3","Month 3","Mixed",1,7,7,0.133,0,1,150,0,1,0,0
7,"m3","Month 3","Mixed",1,8,8,0.367,0,0,150,0,1,0,0
7,"m3","Month 3","Mixed",1,9,9,0.133,1,1,150,0,0,0,1
7,"m3","Month 3","Mixed",1,10,10,0.134,1,0,150,0,0,0,1
7,"m3","Month 3","Mixed",1,11,11,0.166,0,0,150,0,1,0,0
7,"m3","Month 3","Mixed",1,12,12,0.083,1,1,150,0,0,0,1
7,"m3","Month 3","Mixed",1,13,13,0.383,1,1,150,1,0,0,1
7,"m3","Month 3","Mixed",1,14,14,0.184,1,0,150,0,0,1,0
7,"m3","Month 3","Mixed",1,15,15,0.117,1,0,150,0,0,1,0
7,"m3","Month 3","Mixed",1,16,16,0.416,0,1,150,0,1,1,1
7,"m3","Month 3","Mixed",1,17,17,0.383,0,1,150,0,1,1,1
7,"m3","Month 3","Mixed",1,18,18,0.016,0,1,150,0,1,1,1
7,"m3","Month 3","Mixed",1,19,19,0.15,0,1,150,0,1,1,1
7,"m3","Month 3","Mixed",1,20,20,0.017,0,0,150,0,1,1,1
7,"m3","Month 3","Mixed",1,21,21,0.217,0,1,150,0,1,1,1
7,"m3","Month 3","Mixed",1,22,22,0.15,0,0,150,0,1,1,1
7,"m3","Month 3","Mixed",1,23,23,0.033,1,0,150,0,0,1,0
7,"m3","Month 3","Mixed",1,24,24,0.367,0,0,150,0,1,1,1
7,"m3","Month 3","Mixed",1,25,25,0.434,0,1,150,1,1,1,1
7,"m3","Month 3","Mixed",1,26,26,0.216,0,1,150,0,1,0,0
7,"m3","Month 3","Mixed",1,27,27,0.1,0,0,150,0,1,0,0
7,"m3","Month 3","Mixed",1,28,28,0.083,1,1,150,0,0,0,1
7,"m3","Month 3","Mixed",1,29,29,0.05,1,0,150,0,0,0,1
7,"m3","Month 3","Mixed",1,30,30,0.366,0,0,150,0,1,0,0
7,"m3","Month 3","Mixed",1,31,31,0.2,1,1,150,0,0,0,1
7,"m3","Month 3","Mixed",1,32,32,0.217,1,1,150,0,0,0,1
7,"m3","Month 3","Mixed",1,33,33,0.433,1,1,150,0,0,0,1
7,"m3","Month 3","Mixed",1,34,34,0.217,1,1,150,0,0,0,1
7,"m3","Month 3","Mixed",1,35,35,0.633,1,1,150,0,0,0,1
7,"m3","Month 3","Positive",3,36,1,0.533,1,1,300,0,0,0,1
7,"m3","Month 3","Positive",3,37,2,0.367,1,1,300,0,0,0,1
7,"m3","Month 3","Positive",3,38,3,0.35,1,1,300,0,0,0,1
7,"m3","Month 3","Positive",3,39,4,0.2,1,1,300,0,0,0,1
7,"m3","Month 3","Positive",3,40,5,0.367,1,1,300,0,0,0,1
7,"m3","Month 3","Positive",3,41,6,0.433,1,0,300,0,0,0,1
7,"m3","Month 3","Positive",3,42,7,0.5,0,0,300,0,1,0,0
7,"m3","Month 3","Positive",3,43,8,0.366,1,0,300,0,0,0,1
7,"m3","Month 3","Positive",3,44,9,0.433,0,0,300,0,1,0,0
7,"m3","Month 3","Positive",3,45,10,0.55,1,1,300,0,0,0,1
7,"m3","Month 3","Positive",3,46,11,0.35,1,1,300,0,0,0,1
7,"m3","Month 3","Positive",3,47,12,0.216,1,0,300,0,0,0,1
7,"m3","Month 3","Positive",3,48,13,0.183,0,0,300,1,1,0,0
7,"m3","Month 3","Positive",3,49,14,0.417,1,0,300,0,0,1,0
7,"m3","Month 3","Positive",3,50,15,0.3,0,1,300,0,1,1,1
7,"m3","Month 3","Positive",3,51,16,0.366,0,1,300,0,1,1,1
7,"m3","Month 3","Positive",3,52,17,0.267,0,0,300,0,1,1,1
7,"m3","Month 3","Positive",3,53,18,0.967,0,1,300,0,1,1,1
7,"m3","Month 3","Positive",3,54,19,0.251,0,1,300,0,1,1,1
7,"m3","Month 3","Positive",3,55,20,0.25,0,1,300,0,1,1,1
7,"m3","Month 3","Positive",3,56,21,0.083,0,1,300,0,1,1,1
7,"m3","Month 3","Positive",3,57,22,0.35,0,1,300,0,1,1,1
7,"m3","Month 3","Positive",3,58,23,0.2,0,1,300,0,1,1,1
7,"m3","Month 3","Positive",3,59,24,0.083,0,1,300,0,1,1,1
7,"m3","Month 3","Positive",3,60,25,0.366,0,0,300,1,1,1,1
7,"m3","Month 3","Positive",3,61,26,0.316,0,0,300,0,1,0,0
7,"m3","Month 3","Positive",3,62,27,0.317,1,1,300,0,0,0,1
7,"m3","Month 3","Positive",3,63,28,0.133,1,1,300,0,0,0,1
7,"m3","Month 3","Positive",3,64,29,0.283,1,1,300,0,0,0,1
7,"m3","Month 3","Positive",3,65,30,0.051,1,1,300,0,0,0,1
7,"m3","Month 3","Positive",3,66,31,0.383,1,1,300,0,0,0,1
7,"m3","Month 3","Positive",3,67,32,0.2,1,1,300,0,0,0,1
7,"m3","Month 3","Positive",3,68,33,0.417,1,1,300,0,0,0,1
7,"m3","Month 3","Positive",3,69,34,0.367,1,1,300,0,0,0,1
7,"m3","Month 3","Positive",3,70,35,0.367,1,1,300,0,0,0,1
7,"m3","Month 3","Negative",2,71,1,0.65,1,0,50,0,0,1,0
7,"m3","Month 3","Negative",2,72,2,0.384,0,0,50,0,1,1,1
7,"m3","Month 3","Negative",2,73,3,0.034,1,0,50,0,0,1,0
7,"m3","Month 3","Negative",2,74,4,0.366,0,1,50,0,1,1,1
7,"m3","Month 3","Negative",2,75,5,0.317,0,1,50,0,1,1,1
7,"m3","Month 3","Negative",2,76,6,0.033,0,1,50,0,1,1,1
7,"m3","Month 3","Negative",2,77,7,0.3,0,1,50,0,1,1,1
7,"m3","Month 3","Negative",2,78,8,0.133,0,1,50,0,1,1,1
7,"m3","Month 3","Negative",2,79,9,0.1,0,1,50,0,1,1,1
7,"m3","Month 3","Negative",2,80,10,0.417,0,1,50,0,1,1,1
7,"m3","Month 3","Negative",2,81,11,0.017,0,1,50,0,1,1,1
7,"m3","Month 3","Negative",2,82,12,0.15,0,0,50,0,1,1,1
7,"m3","Month 3","Negative",2,83,13,0.433,1,0,50,1,0,1,0
7,"m3","Month 3","Negative",2,84,14,0.267,0,0,50,0,1,0,0
7,"m3","Month 3","Negative",2,85,15,0.367,1,0,50,0,0,0,1
7,"m3","Month 3","Negative",2,86,16,0.467,1,1,50,0,0,0,1
7,"m3","Month 3","Negative",2,87,17,0.433,1,1,50,0,0,0,1
7,"m3","Month 3","Negative",2,88,18,0.15,1,1,50,0,0,0,1
7,"m3","Month 3","Negative",2,89,19,0.433,1,1,50,0,0,0,1
7,"m3","Month 3","Negative",2,90,20,0.2,1,1,50,0,0,0,1
7,"m3","Month 3","Negative",2,91,21,0.45,1,0,50,0,0,0,1
7,"m3","Month 3","Negative",2,92,22,0.283,0,0,50,0,1,0,0
7,"m3","Month 3","Negative",2,93,23,0.083,1,1,50,0,0,0,1
7,"m3","Month 3","Negative",2,94,24,0.1,1,1,50,0,0,0,1
7,"m3","Month 3","Negative",2,95,25,0.367,1,1,50,1,0,0,1
7,"m3","Month 3","Negative",2,96,26,0.317,1,0,50,0,0,1,0
7,"m3","Month 3","Negative",2,97,27,0.333,0,1,50,0,1,1,1
7,"m3","Month 3","Negative",2,98,28,0.45,0,1,50,0,1,1,1
7,"m3","Month 3","Negative",2,99,29,0.416,0,1,50,0,1,1,1
7,"m3","Month 3","Negative",2,100,30,0.5,0,1,50,0,1,1,1
7,"m3","Month 3","Negative",2,101,31,0.45,0,1,50,0,1,1,1
7,"m3","Month 3","Negative",2,102,32,0.3,0,1,50,0,1,1,1
7,"m3","Month 3","Negative",2,103,33,0.35,0,1,50,0,1,1,1
7,"m3","Month 3","Negative",2,104,34,0.067,0,1,50,0,1,1,1
7,"m3","Month 3","Negative",2,105,35,0.167,0,1,50,0,1,1,1
7,"m6","Month 6","Mixed",3,1,1,0.75,0,0,320,0,1,0,0
7,"m6","Month 6","Mixed",3,2,2,0.167,1,1,320,0,0,0,1
7,"m6","Month 6","Mixed",3,3,3,0.35,1,1,320,0,0,0,1
7,"m6","Month 6","Mixed",3,4,4,0.4,1,1,320,0,0,0,1
7,"m6","Month 6","Mixed",3,5,5,0.351,1,1,320,0,0,0,1
7,"m6","Month 6","Mixed",3,6,6,0.333,1,1,320,0,0,0,1
7,"m6","Month 6","Mixed",3,7,7,0.467,1,1,320,0,0,0,1
7,"m6","Month 6","Mixed",3,8,8,0.5,1,1,320,0,0,0,1
7,"m6","Month 6","Mixed",3,9,9,0.684,1,1,320,0,0,0,1
7,"m6","Month 6","Mixed",3,10,10,0.383,1,1,320,0,0,0,1
7,"m6","Month 6","Mixed",3,11,11,0.383,1,1,320,0,0,0,1
7,"m6","Month 6","Mixed",3,12,12,0.667,1,0,320,0,0,0,1
7,"m6","Month 6","Mixed",3,13,13,0.417,0,0,320,1,1,0,0
7,"m6","Month 6","Mixed",3,14,14,0.617,0,1,320,0,1,1,1
7,"m6","Month 6","Mixed",3,15,15,0.284,0,1,320,0,1,1,1
7,"m6","Month 6","Mixed",3,16,16,0.467,0,1,320,0,1,1,1
7,"m6","Month 6","Mixed",3,17,17,0.334,0,0,320,0,1,1,1
7,"m6","Month 6","Mixed",3,18,18,0.817,0,0,320,0,1,1,1
7,"m6","Month 6","Mixed",3,19,19,0.1,1,1,320,0,0,1,0
7,"m6","Month 6","Mixed",3,20,20,0.317,1,0,320,0,0,1,0
7,"m6","Month 6","Mixed",3,21,21,0.383,0,1,320,0,1,1,1
7,"m6","Month 6","Mixed",3,22,22,0.383,0,1,320,0,1,1,1
7,"m6","Month 6","Mixed",3,23,23,0.383,0,0,320,0,1,1,1
7,"m6","Month 6","Mixed",3,24,24,0.35,1,0,320,0,0,1,0
